File: Data/As Grown/As Deposited XRD.xy
10	9
10.07	8
10.14	7
10.21	10
10.28	7
10.35	8
10.42	6
10.49	4
10.56	9
10.63	6
10.7	9
10.77	3
10.84	8
10.91	4
10.98	5
11.05	4
11.12	7
11.19	1
11.26	3
11.33	2
11.4	5
11.47	6
11.54	6
11.61	9
11.68	5
11.75	9
11.82	12
11.89	1
11.96	10
12.03	10
12.1	5
12.17	4
12.24	6
12.31	7
12.38	2
12.45	8
12.52	7
12.59	5
12.66	5
12.73	7
12.8	2
12.87	6
12.94	9
13.01	8
13.08	12
13.15	8
13.22	4
13.29	4
13.36	9
13.43	7
13.5	8
13.57	5
13.64	9
13.71	7
13.78	7
13.85	7
13.92	9
13.99	12
14.06	7
14.13	4
14.2	11
14.27	9
14.34	12
14.41	6
14.48	4
14.55	3
14.62	6
14.69	3
14.76	4
14.83	10
14.9	11
14.97	7
15.04	9
15.11	41
15.18	55
15.25	17
15.32	14
15.39	16
15.46	12
15.53	8
15.6	3
15.67	7
15.74	10
15.81	8
15.88	7
15.95	4
16.02	7
16.09	10
16.16	10
16.23	8
16.3	6
16.37	8
16.44	7
16.51	6
16.58	9
16.65	10
16.72	6
16.79	12
16.86	6
16.93	7
17	3
17.07	8
17.14	7
17.21	5
17.28	6
17.35	3
17.42	6
17.49	10
17.56	5
17.63	12
17.7	7
17.77	10
17.84	12
17.91	8
17.98	6
18.05	11
18.12	10
18.19	7
18.26	9
18.33	4
18.4	8
18.47	10
18.54	6
18.61	10
18.68	7
18.75	3
18.82	5
18.89	5
18.96	7
19.03	6
19.1	9
19.17	4
19.24	13
19.31	8
19.38	7
19.45	11
19.52	11
19.59	3
19.66	4
19.73	13
19.8	7
19.87	7
19.94	2
20.01	9
20.08	6
20.15	7
20.22	6
20.29	6
20.36	6
20.43	1
20.5	6
20.57	6
20.64	5
20.71	5
20.78	7
20.85	5
20.92	8
20.99	5
21.06	7
21.13	11
21.2	7
21.27	9
21.34	4
21.41	11
21.48	8
21.55	8
21.62	8
21.69	5
21.76	2
21.83	8
21.9	6
21.97	3
22.04	9
22.11	7
22.18	12
22.25	6
22.32	10
22.39	10
22.46	14
22.53	18
22.6	22
22.67	41
22.74	8832
22.81	19750
22.88	97
22.95	35
23.02	24
23.09	15
23.16	9
23.23	11
23.3	7
23.37	11
23.44	10
23.51	7
23.58	9
23.65	7
23.72	8
23.79	5
23.86	5
23.93	9
24	3
24.07	10
24.14	4
24.21	8
24.28	7
24.35	10
24.42	4
24.49	7
24.56	8
24.63	8
24.7	5
24.77	4
24.84	7
24.91	10
24.98	7
25.05	7
25.12	7
25.19	4
25.26	5
25.33	4
25.4	10
25.47	4
25.54	2
25.61	3
25.68	5
25.75	4
25.82	6
25.89	6
25.96	10
26.03	6
26.1	5
26.17	7
26.24	9
26.31	8
26.38	5
26.45	4
26.52	6
26.59	3
26.66	6
26.73	6
26.8	8
26.87	10
26.94	9
27.01	6
27.08	7
27.15	10
27.22	5
27.29	4
27.36	7
27.43	10
27.5	5
27.57	8
27.64	7
27.71	5
27.78	9
27.85	6
27.92	11
27.99	3
28.06	7
28.13	11
28.2	0
28.27	6
28.34	5
28.41	5
28.48	6
28.55	5
28.62	6
28.69	7
28.76	4
28.83	5
28.9	5
28.97	6
29.04	8
29.11	5
29.18	5
29.25	3
29.32	5
29.39	5
29.46	5
29.53	4
29.6	5
29.67	9
29.74	6
29.81	1
29.88	2
29.95	7
30.02	5
30.09	5
30.16	8
30.23	4
30.3	10
30.37	9
30.44	11
30.51	12
30.58	9
30.65	10
30.72	10
30.79	6
30.86	7
30.93	5
31	4
31.07	2
31.14	4
31.21	9
31.28	4
31.35	3
31.42	14
31.49	5
31.56	10
31.63	5
31.7	4
31.77	4
31.84	7
31.91	9
31.98	9
32.05	6
32.12	7
32.19	5
32.26	1
32.33	9
32.4	11
32.47	3
32.54	6
32.61	3
32.68	5
32.75	9
32.82	1
32.89	9
32.96	6
33.03	2
33.1	8
33.17	8
33.24	5
33.31	3
33.38	5
33.45	7
33.52	9
33.59	3
33.66	5
33.73	10
33.8	9
33.87	8
33.94	8
34.01	10
34.08	8
34.15	3
34.22	11
34.29	9
34.36	4
34.43	6
34.5	2
34.57	5
34.64	9
34.71	4
34.78	7
34.85	5
34.92	6
34.99	6
35.06	6
35.13	6
35.2	7
35.27	3
35.34	3
35.41	4
35.48	4
35.55	5
35.62	5
35.69	2
35.76	12
35.83	2
35.9	3
35.97	5
36.04	4
36.11	3
36.18	5
36.25	3
36.32	2
36.39	2
36.46	4
36.53	2
36.6	5
36.67	9
36.74	6
36.81	5
36.88	5
36.95	5
37.02	8
37.09	4
37.16	6
37.23	10
37.3	5
37.37	4
37.44	2
37.51	6
37.58	8
37.65	4
37.72	8
37.79	5
37.86	5
37.93	2
38	10
38.07	10
38.14	13
38.21	8
38.28	28
38.35	38
38.42	98
38.49	106
38.56	66
38.63	43
38.7	21
38.77	22
38.84	22
38.91	9
38.98	11
39.05	8
39.12	12
39.19	6
39.26	4
39.33	7
39.4	11
39.47	7
39.54	5
39.61	2
39.68	4
39.75	7
39.82	4
39.89	6
39.96	6
40.03	5
40.1	4
40.17	3
40.24	6
40.31	2
40.38	5
40.45	8
40.52	7
40.59	5
40.66	6
40.73	4
40.8	3
40.87	6
40.94	5
41.01	4
41.08	3
41.15	5
41.22	4
41.29	6
41.36	4
41.43	4
41.5	4
41.57	1
41.64	5
41.71	13
41.78	5
41.85	5
41.92	6
41.99	4
42.06	2
42.13	7
42.2	8
42.27	4
42.34	7
42.41	4
42.48	4
42.55	4
42.62	5
42.69	7
42.76	5
42.83	10
42.9	8
42.97	3
43.04	3
43.11	2
43.18	6
43.25	6
43.32	6
43.39	2
43.46	8
43.53	7
43.6	3
43.67	9
43.74	5
43.81	9
43.88	6
43.95	3
44.02	7
44.09	9
44.16	4
44.23	6
44.3	8
44.37	5
44.44	4
44.51	5
44.58	4
44.65	8
44.72	12
44.79	13
44.86	8
44.93	5
45	8
45.07	9
45.14	15
45.21	12
45.28	16
45.35	14
45.42	13
45.49	18
45.56	14
45.63	13
45.7	17
45.77	13
45.84	10
45.91	14
45.98	10
46.05	23
46.12	25
46.19	37
46.26	66
46.33	177
46.4	1653
46.47	454288
46.54	13189
46.61	400
46.68	165
46.75	75
46.82	42
46.89	44
46.96	24
47.03	15
47.1	14
47.17	10
47.24	11
47.31	8
47.38	9
47.45	7
47.52	6
47.59	7
47.66	5
47.73	7
47.8	6
47.87	5
47.94	5
48.01	6
48.08	7
48.15	3
48.22	3
48.29	5
48.36	9
48.43	4
48.5	8
48.57	5
48.64	3
48.71	6
48.78	4
48.85	6
48.92	1
48.99	6
49.06	7
49.13	3
49.2	1
49.27	6
49.34	8
49.41	6
49.48	7
49.55	6
49.62	6
49.69	4
49.76	4
49.83	10
49.9	4
49.97	3
50.04	4
50.11	7
50.18	5
50.25	3
50.32	3
50.39	7
50.46	4
50.53	2
50.6	4
50.67	9
50.74	4
50.81	6
50.88	4
50.95	1
51.02	6
51.09	5
51.16	6
51.23	7
51.3	10
51.37	4
51.44	8
51.51	6
51.58	5
51.65	2
51.72	4
51.79	5
51.86	3
51.93	5
52	10
52.07	4
52.14	4
52.21	5
52.28	8
52.35	4
52.42	9
52.49	3
52.56	5
52.63	8
52.7	3
52.77	9
52.84	2
52.91	4
52.98	6
53.05	4
53.12	1
53.19	3
53.26	7
53.33	9
53.4	5
53.47	4
53.54	9
53.61	3
53.68	4
53.75	5
53.82	4
53.89	9
53.96	4
54.03	2
54.1	5
54.17	7
54.24	9
54.31	4
54.38	5
54.45	7
54.52	2
54.59	5
54.66	10
54.73	5
54.8	12
54.87	18
54.94	18
55.01	14
55.08	10
55.15	6
55.22	7
55.29	4
55.36	12
55.43	7
55.5	6
55.57	3
55.64	3
55.71	6
55.78	9
55.85	2
55.92	5
55.99	5
56.06	8
56.13	8
56.2	3
56.27	5
56.34	5
56.41	3
56.48	5
56.55	7
56.62	2
56.69	3
56.76	4
56.83	4
56.9	4
56.97	9
57.04	4
57.11	8
57.18	6
57.25	10
57.32	10
57.39	1
57.46	4
57.53	7
57.6	2
57.67	3
57.74	7
57.81	4
57.88	6
57.95	7
58.02	5
58.09	1
58.16	4
58.23	3
58.3	4
58.37	6
58.44	4
58.51	5
58.58	8
58.65	4
58.72	3
58.79	3
58.86	6
58.93	5
59	3
59.07	6
59.14	4
59.21	5
59.28	3
59.35	7
59.42	11
59.49	4
59.56	3
59.63	10
59.7	0
59.77	2
59.84	7
59.91	7
59.98	4
60.05	4
60.12	5
60.19	4
60.26	5
60.33	3
60.4	2
60.47	2
60.54	1
60.61	2
60.68	4
60.75	3
60.82	1
60.89	4
60.96	6
61.03	7
61.1	4
61.17	7
61.24	8
61.31	6
61.38	5
61.45	4
61.52	5
61.59	6
61.66	4
61.73	3
61.8	6
61.87	4
61.94	5
62.01	8
62.08	3
62.15	3
62.22	5
62.29	7
62.36	4
62.43	8
62.5	4
62.57	4
62.64	4
62.71	8
62.78	9
62.85	5
62.92	6
62.99	4
63.06	5
63.13	9
63.2	11
63.27	4
63.34	2
63.41	1
63.48	5
63.55	5
63.62	6
63.69	4
63.76	4
63.83	7
63.9	5
63.97	4
64.04	2
64.11	7
64.18	4
64.25	1
64.32	4
64.39	6
64.46	4
64.53	2
64.6	11
64.67	3
64.74	8
64.81	4
64.88	7
64.95	8
65.02	7
65.09	6
65.16	3
65.23	3
65.3	2
65.37	7
65.44	5
65.51	5
65.58	8
65.65	5
65.72	4
65.79	4
65.86	3
65.93	11
66	2
66.07	4
66.14	6
66.21	3
66.28	2
66.35	5
66.42	2
66.49	2
66.56	0
66.63	5
66.7	4
66.77	12
66.84	5
66.91	8
66.98	4
67.05	2
67.12	2
67.19	3
67.26	5
67.33	8
67.4	1
67.47	8
67.54	7
67.61	6
67.68	4
67.75	6
67.82	4
67.89	2
67.96	3
68.03	2
68.1	4
68.17	6
68.24	11
68.31	1
68.38	3
68.45	7
68.52	0
68.59	6
68.66	4
68.73	2
68.8	3
68.87	6
68.94	4
69.01	6
69.08	5
69.15	4
69.22	5
69.29	5
69.36	6
69.43	3
69.5	2
69.57	6
69.64	9
69.71	4
69.78	4
69.85	5
69.92	5
69.99	4
70.06	5
70.13	4
70.2	4
70.27	5
70.34	7
70.41	6
70.48	6
70.55	5
70.62	7
70.69	3
70.76	2
70.83	6
70.9	4
70.97	4
71.04	3
71.11	5
71.18	4
71.25	4
71.32	6
71.39	6
71.46	2
71.53	2
71.6	3
71.67	2
71.74	4
71.81	7
71.88	7
71.95	2
72.02	6
72.09	1
72.16	5
72.23	6
72.3	4
72.37	10
72.44	17
72.51	154
72.58	4033
72.65	45
72.72	16
72.79	7
72.86	6
72.93	6
73	8
73.07	5
73.14	6
73.21	8
73.28	7
73.35	4
73.42	5
73.49	8
73.56	7
73.63	3
73.7	7
73.77	3
73.84	3
73.91	3
73.98	6
74.05	6
74.12	4
74.19	5
74.26	7
74.33	4
74.4	3
74.47	9
74.54	5
74.61	6
74.68	6
74.75	3
74.82	3
74.89	5
74.96	5
75.03	3
75.1	9
75.17	5
75.24	6
75.31	6
75.38	8
75.45	5
75.52	7
75.59	4
75.66	6
75.73	4
75.8	7
75.87	3
75.94	5
76.01	4
76.08	6
76.15	4
76.22	6
76.29	10
76.36	4
76.43	4
76.5	3
76.57	2
76.64	6
76.71	6
76.78	7
76.85	7
76.92	4
76.99	5
77.06	4
77.13	2
77.2	1
77.27	4
77.34	4
77.41	6
77.48	7
77.55	9
77.62	1
77.69	1
77.76	8
77.83	6
77.9	6
77.97	7
78.04	5
78.11	6
78.18	5
78.25	5
78.32	2
78.39	2
78.46	5
78.53	5
78.6	8
78.67	5
78.74	5
78.81	7
78.88	8
78.95	1
79.02	2
79.09	0
79.16	3
79.23	5
79.3	3
79.37	9
79.44	3
79.51	3
79.58	8
79.65	5
79.72	7
79.79	5
79.86	2
79.93	4
80	2
80.07	6
80.14	8
80.21	3
80.28	5
80.35	5
80.42	3
80.49	3
80.56	3
80.63	2
80.7	3
80.77	7
80.84	3
80.91	1
80.98	5
81.05	4
81.12	2
81.19	1
81.26	4
81.33	8
81.4	4
81.47	6
81.54	2
81.61	6
81.68	8
81.75	8
81.82	8
81.89	6
81.96	5
82.03	10
82.1	8
82.17	7
82.24	3
82.31	6
82.38	7
82.45	7
82.52	5
82.59	7
82.66	4
82.73	7
82.8	4
82.87	4
82.94	0
83.01	5
83.08	10
83.15	3
83.22	4
83.29	3
83.36	8
83.43	2
83.5	8
83.57	1
83.64	3
83.71	4
83.78	3
83.85	4
83.92	7
83.99	2
84.06	5
84.13	4
84.2	3
84.27	4
84.34	7
84.41	8
84.48	5
84.55	4
84.62	5
84.69	7
84.76	5
84.83	5
84.9	11
84.97	3
85.04	4
85.11	4
85.18	4
85.25	7
85.32	8
85.39	7
85.46	6
85.53	4
85.6	9
85.67	7
85.74	2
85.81	5
85.88	2
85.95	1
86.02	3
86.09	2
86.16	3
86.23	2
86.3	7
86.37	4
86.44	2
86.51	4
86.58	7
86.65	5
86.72	8
86.79	4
86.86	6
86.93	5
87	7
87.07	7
87.14	6
87.21	5
87.28	2
87.35	2
87.42	7
87.49	4
87.56	5
87.63	7
87.7	3
87.77	8
87.84	4
87.91	6
87.98	3
88.05	3
88.12	2
88.19	3
88.26	5
88.33	7
88.4	6
88.47	4
88.54	1
88.61	6
88.68	6
88.75	4
88.82	10
88.89	4
88.96	2
89.03	5
89.1	3
89.17	5
89.24	6
89.31	3
89.38	3
89.45	3
89.52	3
89.59	10
89.66	9
89.73	1
89.8	7
89.87	7
89.94	6
90.01	9
90.08	4
90.15	6
90.22	5
90.29	6
90.36	3
90.43	6
90.5	7
90.57	9
90.64	2
90.71	5
90.78	4
90.85	2
90.92	2
90.99	9
91.06	4
91.13	6
91.2	4
91.27	1
91.34	1
91.41	5
91.48	7
91.55	4
91.62	5
91.69	1
91.76	3
91.83	4
91.9	5
91.97	6
92.04	4
92.11	6
92.18	1
92.25	7
92.32	10
92.39	3
92.46	6
92.53	9
92.6	4
92.67	10
92.74	5
92.81	8
92.88	7
92.95	6
93.02	6
93.09	4
93.16	5
93.23	4
93.3	8
93.37	6
93.44	7
93.51	7
93.58	6
93.65	2
93.72	3
93.79	6
93.86	5
93.93	6
94	4
94.07	7
94.14	4
94.21	2
94.28	3
94.35	4
94.42	9
94.49	5
94.56	7
94.63	5
94.7	3
94.77	8
94.84	3
94.91	6
94.98	5
95.05	5
95.12	5
95.19	1
95.26	6
95.33	9
95.4	5
95.47	4
95.54	6
95.61	5
95.68	5
95.75	4
95.82	7
95.89	8
95.96	3
96.03	3
96.1	4
96.17	8
96.24	10
96.31	6
96.38	3
96.45	6
96.52	3
96.59	5
96.66	4
96.73	4
96.8	5
96.87	2
96.94	5
97.01	5
97.08	4
97.15	6
97.22	4
97.29	5
97.36	7
97.43	5
97.5	6
97.57	5
97.64	9
97.71	5
97.78	6
97.85	5
97.92	3
97.99	4
98.06	4
98.13	4
98.2	4
98.27	2
98.34	5
98.41	5
98.48	3
98.55	4
98.62	3
98.69	5
98.76	4
98.83	5
98.9	5
98.97	11
99.04	6
99.11	3
99.18	2
99.25	3
99.32	11
99.39	2
99.46	7
99.53	3
99.6	5
99.67	2
99.74	5
99.81	9
99.88	7
99.95	4
100	3