File: Data/Combined Datasets/XRD.csv
AsGrown,2theta,Intensity,2Theta,Intensity,2Theta,YBCO_Gd20nm,2theta,YBCO_Ta20nm,2theta
,As Grown,,Gd (3 nm),,Gd (7 nm),,Gd (20 nm),,Ta (20 nm)
10,2,10,10,10,4,9.975,28,10,2.56
10.07,3,10.07,9,10.07,8,10.045,25,10.07,5.12
10.14,0,10.14,5,10.14,5,10.115,27,10.14,5.12
10.21,1,10.21,11,10.21,4,10.185,22,10.21,0
10.28,2,10.28,7,10.28,8,10.255,25,10.28,5.12
10.35,2,10.35,5,10.35,4,10.325,23,10.35,15.36
10.42,0,10.42,8,10.42,7,10.395,23,10.42,2.56
10.49,3,10.49,9,10.49,10,10.465,27,10.49,15.36
10.56,2,10.56,9,10.56,5,10.535,21,10.56,5.12
10.63,1,10.63,9,10.63,6,10.605,24,10.63,7.68
10.7,0,10.7,8,10.7,3,10.675,15,10.7,2.56
10.77,1,10.77,9,10.77,2,10.745,16,10.77,2.56
10.84,2,10.84,7,10.84,6,10.815,24,10.84,0
10.91,1,10.91,7,10.91,5,10.885,25,10.91,2.56
10.98,2,10.98,10,10.98,11,10.955,18,10.98,5.12
11.05,2,11.05,8,11.05,5,11.025,10,11.05,0
11.12,0,11.12,7,11.12,3,11.095,21,11.12,5.12
11.19,1,11.19,10,11.19,4,11.165,21,11.19,0
11.26,1,11.26,5,11.26,2,11.235,18,11.26,2.56
11.33,0,11.33,9,11.33,15,11.305,21,11.33,0
11.4,1,11.4,5,11.4,4,11.375,15,11.4,5.12
11.47,0,11.47,11,11.47,11,11.445,20,11.47,2.56
11.54,1,11.54,6,11.54,5,11.515,18,11.54,5.12
11.61,2,11.61,14,11.61,8,11.585,23,11.61,2.56
11.68,2,11.68,9,11.68,7,11.655,11,11.68,2.56
11.75,4,11.75,9,11.75,4,11.725,16,11.75,5.12
11.82,2,11.82,15,11.82,13,11.795,27,11.82,0
11.89,1,11.89,9,11.89,8,11.865,17,11.89,2.56
11.96,2,11.96,11,11.96,10,11.935,21,11.96,0
12.03,5,12.03,8,12.03,9,12.005,21,12.03,2.56
12.1,3,12.1,9,12.1,7,12.075,15,12.1,0
12.17,2,12.17,9,12.17,6,12.145,19,12.17,0
12.24,2,12.24,4,12.24,3,12.215,20,12.24,0
12.31,5,12.31,5,12.31,4,12.285,19,12.31,2.56
12.38,1,12.38,7,12.38,6,12.355,10,12.38,10.24
12.45,3,12.45,9,12.45,4,12.425,20,12.45,2.56
12.52,1,12.52,10,12.52,4,12.495,11,12.52,7.68
12.59,1,12.59,10,12.59,3,12.565,21,12.59,0
12.66,1,12.66,7,12.66,5,12.635,13,12.66,7.68
12.73,2,12.73,10,12.73,7,12.705,15,12.73,2.56
12.8,5,12.8,8,12.8,9,12.775,19,12.8,5.12
12.87,2,12.87,14,12.87,9,12.845,26,12.87,2.56
12.94,3,12.94,9,12.94,8,12.915,28,12.94,2.56
13.01,2,13.01,15,13.01,8,12.985,20,13.01,0
13.08,2,13.08,10,13.08,7,13.055,23,13.08,2.56
13.15,1,13.15,7,13.15,6,13.125,24,13.15,5.12
13.22,0,13.22,5,13.22,3,13.195,22,13.22,0
13.29,2,13.29,9,13.29,4,13.265,33,13.29,5.12
13.36,2,13.36,10,13.36,7,13.335,18,13.36,2.56
13.43,2,13.43,6,13.43,8,13.405,38,13.43,2.56
13.5,6,13.5,8,13.5,6,13.475,44,13.5,0
13.57,2,13.57,5,13.57,8,13.545,32,13.57,7.68
13.64,2,13.64,13,13.64,10,13.615,32,13.64,7.68
13.71,4,13.71,10,13.71,5,13.685,53,13.71,2.56
13.78,0,13.78,8,13.78,9,13.755,40,13.78,5.12
13.85,0,13.85,10,13.85,8,13.825,51,13.85,10.24
13.92,4,13.92,13,13.92,18,13.895,72,13.92,10.24
13.99,6,13.99,13,13.99,10,13.965,98,13.99,5.12
14.06,2,14.06,17,14.06,15,14.035,138,14.06,7.68
14.13,2,14.13,14,14.13,8,14.105,174,14.13,2.56
14.2,3,14.2,5,14.2,8,14.175,249,14.2,7.68
14.27,6,14.27,13,14.27,15,14.245,329,14.27,2.56
14.34,2,14.34,14,14.34,8,14.315,351,14.34,7.68
14.41,6,14.41,12,14.41,21,14.385,378,14.41,5.12
14.48,0,14.48,14,14.48,23,14.455,411,14.48,7.68
14.55,2,14.55,13,14.55,15,14.525,373,14.55,7.68
14.62,4,14.62,13,14.62,26,14.595,371,14.62,17.92
14.69,4,14.69,8,14.69,23,14.665,319,14.69,12.8
14.76,9,14.76,21,14.76,34,14.735,286,14.76,25.6
14.83,10,14.83,27,14.83,35,14.805,201,14.83,33.28
14.9,12,14.9,36,14.9,52,14.875,172,14.9,46.08
14.97,20,14.97,80,14.97,79,14.945,108,14.97,66.56
15.04,30,15.04,206,15.04,170,15.015,87,15.04,112.64
15.11,252,15.11,966,15.11,150,15.085,72,15.11,325.12
15.18,426,15.18,280,15.18,52,15.155,69,15.18,322.56
15.25,117,15.25,50,15.25,25,15.225,58,15.25,104.96
15.32,23,15.32,23,15.32,17,15.295,48,15.32,48.64
15.39,12,15.39,22,15.39,17,15.365,46,15.39,30.72
15.46,8,15.46,16,15.46,14,15.435,36,15.46,7.68
15.53,5,15.53,18,15.53,12,15.505,34,15.53,10.24
15.6,7,15.6,16,15.6,9,15.575,37,15.6,5.12
15.67,1,15.67,14,15.67,9,15.645,36,15.67,7.68
15.74,3,15.74,13,15.74,4,15.715,27,15.74,5.12
15.81,3,15.81,12,15.81,7,15.785,22,15.81,10.24
15.88,0,15.88,3,15.88,6,15.855,30,15.88,2.56
15.95,6,15.95,6,15.95,3,15.925,19,15.95,5.12
16.02,4,16.02,11,16.02,7,15.995,23,16.02,2.56
16.09,0,16.09,11,16.09,6,16.065,20,16.09,0
16.16,3,16.16,7,16.16,7,16.135,25,16.16,2.56
16.23,3,16.23,9,16.23,12,16.205,29,16.23,0
16.3,2,16.3,7,16.3,5,16.275,21,16.3,0
16.37,1,16.37,11,16.37,5,16.345,29,16.37,5.12
16.44,1,16.44,11,16.44,6,16.415,28,16.44,5.12
16.51,2,16.51,17,16.51,4,16.485,26,16.51,2.56
16.58,2,16.58,7,16.58,8,16.555,23,16.58,2.56
16.65,1,16.65,4,16.65,9,16.625,21,16.65,12.8
16.72,0,16.72,6,16.72,4,16.695,14,16.72,2.56
16.79,2,16.79,10,16.79,8,16.765,25,16.79,2.56
16.86,2,16.86,7,16.86,5,16.835,17,16.86,0
16.93,0,16.93,7,16.93,5,16.905,18,16.93,10.24
17,2,17,7,17,6,16.975,14,17,2.56
17.07,1,17.07,4,17.07,11,17.045,14,17.07,2.56
17.14,0,17.14,10,17.14,3,17.115,27,17.14,2.56
17.21,1,17.21,9,17.21,3,17.185,15,17.21,2.56
17.28,1,17.28,8,17.28,7,17.255,12,17.28,0
17.35,0,17.35,10,17.35,8,17.325,15,17.35,0
17.42,3,17.42,7,17.42,8,17.395,14,17.42,2.56
17.49,1,17.49,8,17.49,11,17.465,5,17.49,5.12
17.56,0,17.56,10,17.56,4,17.535,12,17.56,7.68
17.63,0,17.63,10,17.63,6,17.605,14,17.63,7.68
17.7,3,17.7,9,17.7,10,17.675,12,17.7,5.12
17.77,2,17.77,8,17.77,4,17.745,6,17.77,5.12
17.84,2,17.84,10,17.84,3,17.815,11,17.84,15.36
17.91,0,17.91,12,17.91,3,17.885,11,17.91,10.24
17.98,1,17.98,9,17.98,6,17.955,10,17.98,0
18.05,2,18.05,6,18.05,3,18.025,15,18.05,5.12
18.12,0,18.12,11,18.12,6,18.095,6,18.12,0
18.19,2,18.19,6,18.19,4,18.165,15,18.19,0
18.26,1,18.26,8,18.26,4,18.235,11,18.26,0
18.33,1,18.33,10,18.33,3,18.305,9,18.33,5.12
18.4,2,18.4,4,18.4,9,18.375,8,18.4,0
18.47,1,18.47,4,18.47,4,18.445,14,18.47,0
18.54,3,18.54,7,18.54,10,18.515,15,18.54,5.12
18.61,3,18.61,7,18.61,4,18.585,7,18.61,10.24
18.68,1,18.68,9,18.68,6,18.655,11,18.68,0
18.75,0,18.75,5,18.75,2,18.725,16,18.75,0
18.82,0,18.82,11,18.82,4,18.795,13,18.82,0
18.89,2,18.89,8,18.89,7,18.865,15,18.89,0
18.96,1,18.96,5,18.96,6,18.935,10,18.96,5.12
19.03,1,19.03,9,19.03,10,19.005,8,19.03,0
19.1,3,19.1,5,19.1,4,19.075,14,19.1,5.12
19.17,0,19.17,7,19.17,2,19.145,14,19.17,10.24
19.24,0,19.24,7,19.24,10,19.215,9,19.24,0
19.31,1,19.31,11,19.31,6,19.285,7,19.31,5.12
19.38,2,19.38,7,19.38,2,19.355,10,19.38,0
19.45,0,19.45,8,19.45,5,19.425,8,19.45,0
19.52,1,19.52,9,19.52,4,19.495,9,19.52,0
19.59,2,19.59,6,19.59,5,19.565,8,19.59,0
19.66,0,19.66,13,19.66,3,19.635,17,19.66,0
19.73,1,19.73,6,19.73,5,19.705,8,19.73,0
19.8,2,19.8,6,19.8,2,19.775,11,19.8,0
19.87,2,19.87,12,19.87,10,19.845,11,19.87,5.12
19.94,0,19.94,1,19.94,6,19.915,19,19.94,0
20.01,0,20.01,9,20.01,4,19.985,11,20.01,0
20.08,2,20.08,11,20.08,5,20.055,20,20.08,0
20.15,0,20.15,11,20.15,3,20.125,17,20.15,0
20.22,2,20.22,4,20.22,4,20.195,12,20.22,0
20.29,1,20.29,7,20.29,4,20.265,12,20.29,5.12
20.36,5,20.36,7,20.36,7,20.335,9,20.36,0
20.43,1,20.43,5,20.43,6,20.405,21,20.43,0
20.5,2,20.5,9,20.5,8,20.475,26,20.5,5.12
20.57,47,20.57,14,20.57,2,20.545,850,20.57,0
20.64,2,20.64,7,20.64,4,20.615,44,20.64,5.12
20.71,0,20.71,9,20.71,11,20.685,37,20.71,0
20.78,5,20.78,7,20.78,11,20.755,23,20.78,5.12
20.85,5,20.85,16,20.85,8,20.825,23,20.85,0
20.92,4,20.92,14,20.92,6,20.895,36,20.92,0
20.99,5,20.99,7,20.99,3,20.965,36,20.99,0
21.06,1,21.06,7,21.06,3,21.035,36,21.06,0
21.13,4,21.13,12,21.13,3,21.105,31,21.13,10.24
21.2,2,21.2,9,21.2,8,21.175,37,21.2,5.12
21.27,2,21.27,5,21.27,8,21.245,50,21.27,5.12
21.34,4,21.34,8,21.34,1,21.315,57,21.34,0
21.41,4,21.41,8,21.41,8,21.385,71,21.41,0
21.48,3,21.48,10,21.48,7,21.455,67,21.48,0
21.55,5,21.55,7,21.55,8,21.525,72,21.55,10.24
21.62,4,21.62,4,21.62,9,21.595,78,21.62,0
21.69,3,21.69,6,21.69,12,21.665,132,21.69,0
21.76,1,21.76,10,21.76,12,21.735,123,21.76,5.12
21.83,9,21.83,13,21.83,10,21.805,169,21.83,5.12
21.9,8,21.9,9,21.9,10,21.875,135,21.9,5.12
21.97,7,21.97,10,21.97,15,21.945,187,21.97,0
22.04,13,22.04,7,22.04,14,22.015,204,22.04,10.24
22.11,15,22.11,15,22.11,9,22.085,244,22.11,25.6
22.18,15,22.18,18,22.18,18,22.155,254,22.18,5.12
22.25,28,22.25,28,22.25,23,22.225,298,22.25,25.6
22.32,45,22.32,25,22.32,25,22.295,417,22.32,15.36
22.39,67,22.39,37,22.39,38,22.365,609,22.39,5.12
22.46,92,22.46,36,22.46,49,22.435,841,22.46,76.8
22.53,162,22.53,74,22.53,72,22.505,1440,22.53,61.44
22.6,280,22.6,147,22.6,171,22.575,2358,22.6,117.76
22.67,1191,22.67,758,22.67,336,22.645,6732,22.67,215.04
22.74,5238,22.74,33856,22.74,12096,22.715,22089,22.74,496.64
22.81,12404,22.81,1928,22.81,1069,22.785,730356,22.81,640
22.88,2373,22.88,240,22.88,134,22.855,83955,22.88,404.48
22.95,624,22.95,120,22.95,88,22.925,8548,22.95,112.64
23.02,293,23.02,74,23.02,59,22.995,3638,23.02,71.68
23.09,148,23.09,46,23.09,48,23.065,2275,23.09,61.44
23.16,116,23.16,44,23.16,26,23.135,1377,23.16,56.32
23.23,63,23.23,32,23.23,44,23.205,938,23.23,15.36
23.3,49,23.3,20,23.3,32,23.275,635,23.3,30.72
23.37,47,23.37,21,23.37,23,23.345,471,23.37,20.48
23.44,16,23.44,23,23.44,19,23.415,404,23.44,15.36
23.51,15,23.51,15,23.51,15,23.485,357,23.51,15.36
23.58,15,23.58,19,23.58,22,23.555,302,23.58,51.2
23.65,9,23.65,17,23.65,27,23.625,272,23.65,35.84
23.72,14,23.72,17,23.72,15,23.695,220,23.72,5.12
23.79,11,23.79,11,23.79,18,23.765,227,23.79,15.36
23.86,9,23.86,18,23.86,11,23.835,204,23.86,30.72
23.93,4,23.93,20,23.93,23,23.905,194,23.93,10.24
24,6,24,17,24,25,23.975,185,24,5.12
24.07,5,24.07,15,24.07,14,24.045,165,24.07,10.24
24.14,9,24.14,17,24.14,11,24.115,158,24.14,25.6
24.21,6,24.21,19,24.21,12,24.185,155,24.21,5.12
24.28,4,24.28,12,24.28,11,24.255,161,24.28,10.24
24.35,3,24.35,12,24.35,11,24.325,130,24.35,25.6
24.42,6,24.42,20,24.42,14,24.395,128,24.42,5.12
24.49,5,24.49,14,24.49,13,24.465,134,24.49,5.12
24.56,2,24.56,15,24.56,17,24.535,124,24.56,10.24
24.63,5,24.63,12,24.63,8,24.605,103,24.63,5.12
24.7,3,24.7,11,24.7,14,24.675,106,24.7,15.36
24.77,4,24.77,11,24.77,7,24.745,86,24.77,10.24
24.84,8,24.84,16,24.84,13,24.815,77,24.84,5.12
24.91,7,24.91,13,24.91,8,24.885,87,24.91,5.12
24.98,4,24.98,11,24.98,7,24.955,62,24.98,10.24
25.05,4,25.05,9,25.05,13,25.025,71,25.05,5.12
25.12,5,25.12,5,25.12,6,25.095,69,25.12,5.12
25.19,7,25.19,12,25.19,7,25.165,68,25.19,10.24
25.26,4,25.26,11,25.26,10,25.235,46,25.26,15.36
25.33,1,25.33,8,25.33,11,25.305,70,25.33,5.12
25.4,3,25.4,14,25.4,10,25.375,62,25.4,5.12
25.47,2,25.47,10,25.47,10,25.445,42,25.47,10.24
25.54,3,25.54,8,25.54,7,25.515,64,25.54,10.24
25.61,1,25.61,12,25.61,4,25.585,66,25.61,10.24
25.68,0,25.68,8,25.68,10,25.655,50,25.68,5.12
25.75,1,25.75,10,25.75,12,25.725,51,25.75,5.12
25.82,1,25.82,8,25.82,6,25.795,42,25.82,25.6
25.89,1,25.89,9,25.89,4,25.865,36,25.89,0
25.96,1,25.96,11,25.96,8,25.935,36,25.96,0
26.03,5,26.03,14,26.03,10,26.005,40,26.03,0
26.1,2,26.1,10,26.1,7,26.075,34,26.1,0
26.17,4,26.17,8,26.17,7,26.145,29,26.17,5.12
26.24,2,26.24,13,26.24,10,26.215,37,26.24,0
26.31,3,26.31,7,26.31,6,26.285,39,26.31,5.12
26.38,2,26.38,14,26.38,8,26.355,32,26.38,0
26.45,0,26.45,9,26.45,10,26.425,35,26.45,0
26.52,2,26.52,9,26.52,7,26.495,28,26.52,0
26.59,0,26.59,14,26.59,7,26.565,33,26.59,5.12
26.66,1,26.66,6,26.66,5,26.635,34,26.66,5.12
26.73,1,26.73,6,26.73,8,26.705,32,26.73,5.12
26.8,1,26.8,11,26.8,9,26.775,30,26.8,5.12
26.87,3,26.87,5,26.87,4,26.845,32,26.87,0
26.94,4,26.94,10,26.94,4,26.915,22,26.94,0
27.01,4,27.01,13,27.01,5,26.985,24,27.01,0
27.08,2,27.08,13,27.08,11,27.055,28,27.08,5.12
27.15,0,27.15,8,27.15,6,27.125,27,27.15,5.12
27.22,1,27.22,10,27.22,3,27.195,28,27.22,0
27.29,1,27.29,8,27.29,13,27.265,34,27.29,0
27.36,1,27.36,11,27.36,8,27.335,23,27.36,10.24
27.43,0,27.43,9,27.43,5,27.405,31,27.43,10.24
27.5,4,27.5,10,27.5,7,27.475,24,27.5,0
27.57,1,27.57,8,27.57,3,27.545,28,27.57,5.12
27.64,0,27.64,6,27.64,4,27.615,33,27.64,5.12
27.71,1,27.71,11,27.71,5,27.685,23,27.71,0
27.78,1,27.78,12,27.78,14,27.755,26,27.78,5.12
27.85,1,27.85,9,27.85,4,27.825,21,27.85,5.12
27.92,3,27.92,12,27.92,11,27.895,29,27.92,0
27.99,3,27.99,13,27.99,8,27.965,22,27.99,5.12
28.06,0,28.06,10,28.06,1,28.035,23,28.06,0
28.13,1,28.13,4,28.13,5,28.105,26,28.13,0
28.2,2,28.2,17,28.2,5,28.175,32,28.2,5.12
28.27,2,28.27,12,28.27,6,28.245,33,28.27,15.36
28.34,1,28.34,5,28.34,8,28.315,26,28.34,5.12
28.41,0,28.41,7,28.41,4,28.385,31,28.41,0
28.48,3,28.48,9,28.48,9,28.455,44,28.48,0
28.55,1,28.55,9,28.55,3,28.525,34,28.55,5.12
28.62,0,28.62,13,28.62,7,28.595,42,28.62,0
28.69,2,28.69,4,28.69,5,28.665,48,28.69,0
28.76,5,28.76,7,28.76,10,28.735,37,28.76,0
28.83,3,28.83,10,28.83,6,28.805,38,28.83,5.12
28.9,0,28.9,10,28.9,6,28.875,40,28.9,0
28.97,0,28.97,10,28.97,5,28.945,40,28.97,0
29.04,1,29.04,15,29.04,4,29.015,29,29.04,0
29.11,1,29.11,8,29.11,7,29.085,40,29.11,10.24
29.18,0,29.18,5,29.18,10,29.155,36,29.18,5.12
29.25,1,29.25,4,29.25,4,29.225,23,29.25,10.24
29.32,3,29.32,13,29.32,7,29.295,22,29.32,20.48
29.39,0,29.39,6,29.39,5,29.365,23,29.39,10.24
29.46,1,29.46,9,29.46,5,29.435,14,29.46,0
29.53,2,29.53,9,29.53,5,29.505,15,29.53,10.24
29.6,2,29.6,10,29.6,9,29.575,22,29.6,0
29.67,0,29.67,9,29.67,6,29.645,25,29.67,0
29.74,1,29.74,9,29.74,5,29.715,19,29.74,10.24
29.81,3,29.81,7,29.81,6,29.785,24,29.81,0
29.88,1,29.88,9,29.88,2,29.855,17,29.88,0
29.95,1,29.95,2,29.95,5,29.925,16,29.95,5.12
30.02,2,30.02,13,30.02,3,29.995,12,30.02,0
30.09,0,30.09,10,30.09,8,30.065,19,30.09,10.24
30.16,3,30.16,8,30.16,9,30.135,22,30.16,0
30.23,0,30.23,12,30.23,7,30.205,20,30.23,5.12
30.3,4,30.3,13,30.3,10,30.275,29,30.3,0
30.37,5,30.37,22,30.37,25,30.345,24,30.37,15.36
30.44,16,30.44,136,30.44,32,30.415,29,30.44,10.24
30.51,37,30.51,138,30.51,34,30.485,36,30.51,46.08
30.58,55,30.58,50,30.58,25,30.555,40,30.58,56.32
30.65,38,30.65,21,30.65,22,30.625,53,30.65,66.56
30.72,22,30.72,18,30.72,19,30.695,73,30.72,10.24
30.79,11,30.79,20,30.79,15,30.765,73,30.79,10.24
30.86,8,30.86,17,30.86,18,30.835,71,30.86,15.36
30.93,5,30.93,17,30.93,18,30.905,75,30.93,10.24
31,7,31,12,31,10,30.975,61,31,15.36
31.07,5,31.07,5,31.07,8,31.045,75,31.07,10.24
31.14,7,31.14,12,31.14,11,31.115,70,31.14,0
31.21,3,31.21,12,31.21,13,31.185,68,31.21,15.36
31.28,4,31.28,14,31.28,8,31.255,65,31.28,10.24
31.35,3,31.35,11,31.35,13,31.325,78,31.35,10.24
31.42,4,31.42,10,31.42,11,31.395,70,31.42,10.24
31.49,4,31.49,7,31.49,10,31.465,53,31.49,5.12
31.56,1,31.56,9,31.56,12,31.535,63,31.56,10.24
31.63,3,31.63,10,31.63,6,31.605,57,31.63,10.24
31.7,4,31.7,5,31.7,10,31.675,62,31.7,5.12
31.77,5,31.77,10,31.77,8,31.745,58,31.77,5.12
31.84,7,31.84,13,31.84,6,31.815,44,31.84,5.12
31.91,1,31.91,11,31.91,6,31.885,46,31.91,20.48
31.98,3,31.98,7,31.98,6,31.955,51,31.98,10.24
32.05,2,32.05,10,32.05,9,32.025,47,32.05,5.12
32.12,2,32.12,6,32.12,12,32.095,54,32.12,10.24
32.19,4,32.19,12,32.19,11,32.165,43,32.19,0
32.26,1,32.26,9,32.26,6,32.235,24,32.26,10.24
32.33,1,32.33,8,32.33,6,32.305,45,32.33,5.12
32.4,1,32.4,11,32.4,4,32.375,30,32.4,15.36
32.47,2,32.47,10,32.47,14,32.445,36,32.47,0
32.54,1,32.54,9,32.54,6,32.515,32,32.54,5.12
32.61,1,32.61,7,32.61,6,32.585,36,32.61,5.12
32.68,2,32.68,12,32.68,10,32.655,40,32.68,10.24
32.75,1,32.75,4,32.75,2,32.725,36,32.75,10.24
32.82,4,32.82,7,32.82,7,32.795,33,32.82,10.24
32.89,0,32.89,12,32.89,8,32.865,43,32.89,5.12
32.96,1,32.96,10,32.96,14,32.935,42,32.96,5.12
33.03,4,33.03,7,33.03,2,33.005,43,33.03,0
33.1,3,33.1,7,33.1,8,33.075,39,33.1,10.24
33.17,3,33.17,11,33.17,14,33.145,39,33.17,10.24
33.24,3,33.24,12,33.24,11,33.215,27,33.24,15.36
33.31,1,33.31,8,33.31,7,33.285,38,33.31,5.12
33.38,5,33.38,17,33.38,8,33.355,55,33.38,20.48
33.45,6,33.45,21,33.45,18,33.425,73,33.45,15.36
33.52,13,33.52,16,33.52,14,33.495,58,33.52,20.48
33.59,9,33.59,8,33.59,5,33.565,82,33.59,0
33.66,3,33.66,19,33.66,9,33.635,85,33.66,0
33.73,4,33.73,27,33.73,14,33.705,104,33.73,10.24
33.8,4,33.8,24,33.8,20,33.775,100,33.8,20.48
33.87,9,33.87,24,33.87,13,33.845,90,33.87,5.12
33.94,6,33.94,15,33.94,16,33.915,66,33.94,5.12
34.01,5,34.01,21,34.01,9,33.985,62,34.01,0
34.08,7,34.08,18,34.08,12,34.055,46,34.08,5.12
34.15,4,34.15,14,34.15,11,34.125,51,34.15,0
34.22,3,34.22,22,34.22,7,34.195,42,34.22,5.12
34.29,5,34.29,11,34.29,10,34.265,36,34.29,10.24
34.36,3,34.36,13,34.36,9,34.335,39,34.36,15.36
34.43,6,34.43,15,34.43,10,34.405,34,34.43,15.36
34.5,3,34.5,25,34.5,10,34.475,40,34.5,5.12
34.57,5,34.57,14,34.57,9,34.545,37,34.57,10.24
34.64,2,34.64,9,34.64,5,34.615,36,34.64,0
34.71,7,34.71,9,34.71,9,34.685,40,34.71,0
34.78,1,34.78,10,34.78,12,34.755,30,34.78,0
34.85,2,34.85,9,34.85,10,34.825,24,34.85,5.12
34.92,3,34.92,17,34.92,1,34.895,30,34.92,0
34.99,4,34.99,7,34.99,10,34.965,38,34.99,15.36
35.06,1,35.06,7,35.06,9,35.035,35,35.06,5.12
35.13,5,35.13,11,35.13,6,35.105,29,35.13,5.12
35.2,2,35.2,9,35.2,7,35.175,33,35.2,5.12
35.27,5,35.27,11,35.27,5,35.245,45,35.27,20.48
35.34,1,35.34,7,35.34,6,35.315,48,35.34,5.12
35.41,9,35.41,7,35.41,7,35.385,36,35.41,15.36
35.48,2,35.48,6,35.48,4,35.455,54,35.48,15.36
35.55,2,35.55,12,35.55,9,35.525,42,35.55,15.36
35.62,7,35.62,7,35.62,9,35.595,45,35.62,10.24
35.69,6,35.69,9,35.69,8,35.665,56,35.69,10.24
35.76,3,35.76,10,35.76,10,35.735,47,35.76,10.24
35.83,0,35.83,7,35.83,8,35.805,42,35.83,10.24
35.9,6,35.9,10,35.9,10,35.875,39,35.9,5.12
35.97,4,35.97,12,35.97,7,35.945,60,35.97,15.36
36.04,3,36.04,7,36.04,17,36.015,39,36.04,5.12
36.11,5,36.11,12,36.11,19,36.085,58,36.11,0
36.18,1,36.18,6,36.18,8,36.155,46,36.18,0
36.25,6,36.25,3,36.25,9,36.225,59,36.25,10.24
36.32,2,36.32,14,36.32,11,36.295,60,36.32,10.24
36.39,5,36.39,20,36.39,6,36.365,71,36.39,5.12
36.46,1,36.46,18,36.46,7,36.435,55,36.46,10.24
36.53,3,36.53,9,36.53,15,36.505,63,36.53,0
36.6,4,36.6,14,36.6,4,36.575,66,36.6,5.12
36.67,2,36.67,15,36.67,6,36.645,50,36.67,5.12
36.74,1,36.74,9,36.74,3,36.715,62,36.74,5.12
36.81,4,36.81,11,36.81,7,36.785,58,36.81,5.12
36.88,2,36.88,9,36.88,5,36.855,70,36.88,10.24
36.95,4,36.95,7,36.95,9,36.925,68,36.95,20.48
37.02,2,37.02,7,37.02,10,36.995,57,37.02,0
37.09,3,37.09,16,37.09,3,37.065,70,37.09,10.24
37.16,4,37.16,15,37.16,6,37.135,62,37.16,20.48
37.23,2,37.23,20,37.23,11,37.205,55,37.23,5.12
37.3,8,37.3,10,37.3,13,37.275,84,37.3,5.12
37.37,3,37.37,19,37.37,15,37.345,102,37.37,0
37.44,4,37.44,20,37.44,14,37.415,112,37.44,0
37.51,2,37.51,17,37.51,14,37.485,95,37.51,0
37.58,3,37.58,24,37.58,20,37.555,98,37.58,20.48
37.65,4,37.65,35,37.65,20,37.625,111,37.65,25.6
37.72,4,37.72,28,37.72,21,37.695,130,37.72,40.96
37.79,11,37.79,30,37.79,30,37.765,149,37.79,20.48
37.86,7,37.86,45,37.86,25,37.835,157,37.86,46.08
37.93,10,37.93,39,37.93,36,37.905,212,37.93,15.36
38,12,38,65,38,43,37.975,209,38,46.08
38.07,14,38.07,88,38.07,78,38.045,248,38.07,46.08
38.14,25,38.14,130,38.14,87,38.115,306,38.14,66.56
38.21,44,38.21,270,38.21,260,38.185,340,38.21,143.36
38.28,76,38.28,985,38.28,418,38.255,393,38.28,250.88
38.35,258,38.35,2276,38.35,464,38.325,488,38.35,368.64
38.42,626,38.42,1148,38.42,348,38.395,518,38.42,686.08
38.49,673,38.49,417,38.49,224,38.465,447,38.49,670.72
38.56,432,38.56,214,38.56,132,38.535,464,38.56,424.96
38.63,212,38.63,119,38.63,99,38.605,393,38.63,194.56
38.7,91,38.7,68,38.7,53,38.675,298,38.7,102.4
38.77,45,38.77,57,38.77,37,38.745,238,38.77,87.04
38.84,27,38.84,44,38.84,30,38.815,177,38.84,71.68
38.91,19,38.91,31,38.91,17,38.885,149,38.91,61.44
38.98,20,38.98,22,38.98,23,38.955,133,38.98,15.36
39.05,9,39.05,17,39.05,19,39.025,107,39.05,30.72
39.12,12,39.12,19,39.12,18,39.095,97,39.12,20.48
39.19,9,39.19,17,39.19,15,39.165,78,39.19,20.48
39.26,8,39.26,20,39.26,10,39.235,68,39.26,25.6
39.33,1,39.33,16,39.33,11,39.305,55,39.33,5.12
39.4,6,39.4,11,39.4,8,39.375,50,39.4,0
39.47,1,39.47,13,39.47,3,39.445,28,39.47,0
39.54,4,39.54,12,39.54,5,39.515,44,39.54,25.6
39.61,0,39.61,14,39.61,10,39.585,33,39.61,5.12
39.68,2,39.68,19,39.68,9,39.655,37,39.68,15.36
39.75,5,39.75,10,39.75,11,39.725,22,39.75,10.24
39.82,0,39.82,6,39.82,9,39.795,39,39.82,0
39.89,1,39.89,16,39.89,7,39.865,32,39.89,15.36
39.96,2,39.96,10,39.96,3,39.935,28,39.96,5.12
40.03,3,40.03,12,40.03,7,40.005,30,40.03,0
40.1,2,40.1,12,40.1,5,40.075,25,40.1,5.12
40.17,2,40.17,10,40.17,5,40.145,17,40.17,5.12
40.24,2,40.24,17,40.24,11,40.215,32,40.24,5.12
40.31,1,40.31,8,40.31,7,40.285,25,40.31,5.12
40.38,0,40.38,11,40.38,9,40.355,18,40.38,0
40.45,2,40.45,11,40.45,4,40.425,19,40.45,10.24
40.52,1,40.52,7,40.52,5,40.495,22,40.52,0
40.59,3,40.59,12,40.59,11,40.565,16,40.59,0
40.66,4,40.66,16,40.66,4,40.635,29,40.66,0
40.73,3,40.73,6,40.73,8,40.705,28,40.73,5.12
40.8,2,40.8,10,40.8,6,40.775,22,40.8,0
40.87,2,40.87,10,40.87,2,40.845,31,40.87,0
40.94,4,40.94,18,40.94,8,40.915,15,40.94,0
41.01,2,41.01,8,41.01,5,40.985,19,41.01,5.12
41.08,1,41.08,7,41.08,3,41.055,28,41.08,0
41.15,2,41.15,8,41.15,11,41.125,28,41.15,0
41.22,5,41.22,10,41.22,4,41.195,16,41.22,0
41.29,2,41.29,1,41.29,4,41.265,20,41.29,5.12
41.36,2,41.36,14,41.36,6,41.335,27,41.36,5.12
41.43,12,41.43,4,41.43,14,41.405,60,41.43,0
41.5,12,41.5,11,41.5,7,41.475,74,41.5,5.12
41.57,7,41.57,12,41.57,8,41.545,74,41.57,0
41.64,9,41.64,8,41.64,4,41.615,88,41.64,0
41.71,28,41.71,9,41.71,12,41.685,172,41.71,0
41.78,767,41.78,8,41.78,2,41.755,2297,41.78,0
41.85,76,41.85,10,41.85,6,41.825,1465,41.85,0
41.92,21,41.92,10,41.92,6,41.895,269,41.92,0
41.99,18,41.99,11,41.99,6,41.965,150,41.99,15.36
42.06,6,42.06,11,42.06,4,42.035,132,42.06,0
42.13,16,42.13,15,42.13,11,42.105,91,42.13,0
42.2,7,42.2,8,42.2,11,42.175,88,42.2,0
42.27,9,42.27,9,42.27,9,42.245,78,42.27,10.24
42.34,6,42.34,10,42.34,2,42.315,94,42.34,0
42.41,7,42.41,8,42.41,3,42.385,79,42.41,5.12
42.48,11,42.48,2,42.48,5,42.455,76,42.48,0
42.55,5,42.55,6,42.55,3,42.525,88,42.55,0
42.62,10,42.62,14,42.62,14,42.595,66,42.62,15.36
42.69,8,42.69,9,42.69,2,42.665,97,42.69,5.12
42.76,17,42.76,10,42.76,6,42.735,113,42.76,0
42.83,10,42.83,8,42.83,7,42.805,99,42.83,0
42.9,9,42.9,13,42.9,4,42.875,69,42.9,0
42.97,4,42.97,5,42.97,6,42.945,91,42.97,0
43.04,10,43.04,8,43.04,10,43.015,95,43.04,5.12
43.11,10,43.11,14,43.11,6,43.085,74,43.11,5.12
43.18,7,43.18,20,43.18,8,43.155,85,43.18,5.12
43.25,11,43.25,13,43.25,8,43.225,85,43.25,5.12
43.32,8,43.32,9,43.32,8,43.295,75,43.32,5.12
43.39,8,43.39,12,43.39,7,43.365,87.88235,43.39,0
43.46,7,43.46,11,43.46,3,43.435,99.52941,43.46,0
43.53,11,43.53,11,43.53,5,43.505,90,43.53,5.12
43.6,9,43.6,13,43.6,10,43.575,114.3529,43.6,0
43.67,14,43.67,13,43.67,11,43.645,91.05882,43.67,10.24
43.74,7,43.74,12,43.74,4,43.715,111.1765,43.74,10.24
43.81,16,43.81,11,43.81,5,43.785,96.35294,43.81,0
43.88,16,43.88,9,43.88,7,43.855,112.2353,43.88,5.12
43.95,12,43.95,9,43.95,6,43.925,108,43.95,0
44.02,15,44.02,8,44.02,8,43.995,119.6471,44.02,0
44.09,22,44.09,11,44.09,5,44.065,141.8824,44.09,10.24
44.16,8,44.16,13,44.16,9,44.135,137.6471,44.16,5.12
44.23,15,44.23,14,44.23,5,44.205,154.5882,44.23,0
44.3,18,44.3,7,44.3,6,44.275,172.5882,44.3,10.24
44.37,19,44.37,15,44.37,7,44.345,183.1765,44.37,5.12
44.44,42,44.44,15,44.44,11,44.415,280.5882,44.44,0
44.51,23,44.51,7,44.51,7,44.485,256.2353,44.51,10.24
44.58,22,44.58,18,44.58,9,44.555,212.8235,44.58,0
44.65,19,44.65,11,44.65,8,44.625,224.4706,44.65,5.12
44.72,36,44.72,15,44.72,14,44.695,240.3529,44.72,0
44.79,37,44.79,17,44.79,8,44.765,316.5882,44.79,0
44.86,43,44.86,23,44.86,7,44.835,322.9412,44.86,5.12
44.93,40,44.93,16,44.93,9,44.905,362.1176,44.93,5.12
45,60,45,17,45,7,44.975,371.6471,45,5.12
45.07,69,45.07,16,45.07,7,45.045,463.7647,45.07,10.24
45.14,80,45.14,18,45.14,15,45.115,613.0588,45.14,0
45.21,95,45.21,22,45.21,8,45.185,591.8823,45.21,0
45.28,105,45.28,21,45.28,12,45.255,706.2353,45.28,15.36
45.35,125,45.35,22,45.35,12,45.325,793.0588,45.35,5.12
45.42,151,45.42,31,45.42,12,45.395,968.8235,45.42,10.24
45.49,190,45.49,30,45.49,21,45.465,1161.529,45.49,25.6
45.56,208,45.56,32,45.56,13,45.535,1471.765,45.56,25.6
45.63,257,45.63,28,45.63,18,45.605,1872,45.63,10.24
45.7,381,45.7,36,45.7,27,45.675,2162.118,45.7,5.12
45.77,433,45.77,23,45.77,37,45.745,2848.235,45.77,15.36
45.84,547,45.84,38,45.84,33,45.815,3477.177,45.84,20.48
45.91,613,45.91,56,45.91,35,45.885,4588.941,45.91,15.36
45.98,822,45.98,54,45.98,72,45.955,6058.588,45.98,30.72
46.05,1015,46.05,87,46.05,62,46.025,8268.353,46.05,40.96
46.12,1277,46.12,140,46.12,98,46.095,11458.59,46.12,66.56
46.19,2224,46.19,218,46.19,181,46.165,17172,46.19,87.04
46.26,6989,46.26,458,46.26,352,46.235,47164.23,46.26,163.84
46.33,7169,46.33,1453,46.33,839,46.305,75790.59,46.33,220.16
46.4,19769,46.4,6423,46.4,4004,46.375,124061.3,46.4,563.2
46.47,526975,46.47,1708610,46.47,589094,46.445,1128378,46.47,1285.12
46.54,55595,46.54,6970,46.54,6667,46.515,1342927,46.54,1203.2
46.61,428618,46.61,986,46.61,503,46.585,2488161,46.61,942.08
46.68,16706,46.68,431,46.68,193,46.655,343387.1,46.68,568.32
46.75,5918,46.75,210,46.75,115,46.725,84426.35,46.75,194.56
46.82,3354,46.82,127,46.82,69,46.795,43683.88,46.82,158.72
46.89,2091,46.89,89,46.89,33,46.865,28204.94,46.89,87.04
46.96,1528,46.96,53,46.96,47,46.935,19750.23,46.96,25.6
47.03,1169,47.03,45,47.03,29,47.005,15727.76,47.03,30.72
47.1,906,47.1,35,47.1,19,47.075,12487.76,47.1,15.36
47.17,724,47.17,28,47.17,20,47.145,10171.06,47.17,20.48
47.24,661,47.24,24,47.24,18,47.215,7968.706,47.24,15.36
47.31,439,47.31,17,47.31,17,47.285,6223.765,47.31,10.24
47.38,363,47.38,18,47.38,8,47.355,4786.941,47.38,25.6
47.45,288,47.45,17,47.45,14,47.425,3919.765,47.45,30.72
47.52,218,47.52,11,47.52,12,47.495,3050.471,47.52,5.12
47.59,179,47.59,16,47.59,10,47.565,2470.235,47.59,10.24
47.66,132,47.66,16,47.66,12,47.635,1965.177,47.66,10.24
47.73,111,47.73,14,47.73,5,47.705,1634.823,47.73,15.36
47.8,109,47.8,12,47.8,6,47.775,1304.471,47.8,5.12
47.87,83,47.87,19,47.87,8,47.845,1096.941,47.87,15.36
47.94,84,47.94,11,47.94,12,47.915,947.647,47.94,0
48.01,76,48.01,10,48.01,6,47.985,828,48.01,0
48.08,65,48.08,15,48.08,11,48.055,700.9412,48.08,0
48.15,58,48.15,11,48.15,6,48.125,636.353,48.15,5.12
48.22,54,48.22,6,48.22,9,48.195,549.5294,48.22,0
48.29,40,48.29,11,48.29,7,48.265,540,48.29,5.12
48.36,25,48.36,13,48.36,14,48.335,427.7647,48.36,0
48.43,25,48.43,12,48.43,8,48.405,418.2353,48.43,0
48.5,40,48.5,11,48.5,9,48.475,422.4706,48.5,0
48.57,34,48.57,13,48.57,6,48.545,396,48.57,0
48.64,28,48.64,9,48.64,15,48.615,356.8235,48.64,5.12
48.71,28,48.71,7,48.71,6,48.685,291.1765,48.71,0
48.78,22,48.78,7,48.78,6,48.755,307.0588,48.78,0
48.85,22,48.85,9,48.85,10,48.825,266.8235,48.85,0
48.92,14,48.92,13,48.92,5,48.895,248.8235,48.92,10.24
48.99,20,48.99,13,48.99,5,48.965,273.1765,48.99,0
49.06,15,49.06,8,49.06,4,49.035,229.7647,49.06,5.12
49.13,17,49.13,10,49.13,8,49.105,189.5294,49.13,0
49.2,11,49.2,13,49.2,10,49.175,193.7647,49.2,0
49.27,10,49.27,13,49.27,9,49.245,209.6471,49.27,5.12
49.34,16,49.34,9,49.34,10,49.315,182.1176,49.34,0
49.41,16,49.41,8,49.41,9,49.385,174.7059,49.41,5.12
49.48,11,49.48,7,49.48,9,49.455,169.4118,49.48,0
49.55,18,49.55,13,49.55,11,49.525,158.8235,49.55,5.12
49.62,9,49.62,11,49.62,8,49.595,138.7059,49.62,5.12
49.69,7,49.69,9,49.69,4,49.665,152.4706,49.69,5.12
49.76,12,49.76,10,49.76,5,49.735,139.7647,49.76,10.24
49.83,15,49.83,5,49.83,5,49.805,127.0588,49.83,10.24
49.9,5,49.9,12,49.9,11,49.875,142.9412,49.9,0
49.97,12,49.97,11,49.97,4,49.945,116.4706,49.97,0
50.04,9,50.04,17,50.04,7,50.015,118.5882,50.04,0
50.11,9,50.11,9,50.11,6,50.085,110.1176,50.11,5.12
50.18,8,50.18,4,50.18,8,50.155,102.7059,50.18,15.36
50.25,10,50.25,8,50.25,6,50.225,136.5882,50.25,5.12
50.32,9,50.32,11,50.32,5,50.295,118.5882,50.32,0
50.39,9,50.39,5,50.39,3,50.365,109.0588,50.39,0
50.46,9,50.46,9,50.46,14,50.435,110.1176,50.46,5.12
50.53,7,50.53,10,50.53,7,50.505,83.64706,50.53,5.12
50.6,6,50.6,9,50.6,5,50.575,81.52941,50.6,0
50.67,5,50.67,6,50.67,4,50.645,90,50.67,15.36
50.74,8,50.74,14,50.74,9,50.715,73.05882,50.74,5.12
50.81,3,50.81,8,50.81,8,50.785,72,50.81,5.12
50.88,5,50.88,18,50.88,13,50.855,64.58823,50.88,5.12
50.95,9,50.95,17,50.95,7,50.925,72,50.95,5.12
51.02,8,51.02,15,51.02,6,50.995,75.17647,51.02,15.36
51.09,7,51.09,14,51.09,11,51.065,65.64706,51.09,10.24
51.16,3,51.16,11,51.16,4,51.135,66.70588,51.16,0
51.23,3,51.23,10,51.23,8,51.205,49.76471,51.23,5.12
51.3,4,51.3,5,51.3,5,51.275,60.35294,51.3,5.12
51.37,2,51.37,6,51.37,4,51.345,73.05882,51.37,5.12
51.44,3,51.44,6,51.44,4,51.415,56.11765,51.44,0
51.51,3,51.51,12,51.51,4,51.485,51.88235,51.51,5.12
51.58,6,51.58,7,51.58,3,51.555,50.82353,51.58,10.24
51.65,4,51.65,13,51.65,2,51.625,67.76471,51.65,0
51.72,10,51.72,10,51.72,13,51.695,42.35294,51.72,0
51.79,8,51.79,14,51.79,8,51.765,59.29412,51.79,10.24
51.86,6,51.86,6,51.86,12,51.835,51.88235,51.86,5.12
51.93,4,51.93,13,51.93,2,51.905,42.35294,51.93,0
52,4,52,7,52,3,51.975,48.70588,52,5.12
52.07,3,52.07,2,52.07,7,52.045,34.94118,52.07,0
52.14,2,52.14,8,52.14,9,52.115,45.52941,52.14,15.36
52.21,4,52.21,3,52.21,5,52.185,46.58823,52.21,5.12
52.28,4,52.28,5,52.28,9,52.255,41.29412,52.28,0
52.35,2,52.35,5,52.35,4,52.325,60.35294,52.35,5.12
52.42,3,52.42,13,52.42,3,52.395,44.47059,52.42,0
52.49,3,52.49,8,52.49,8,52.465,39.17647,52.49,15.36
52.56,1,52.56,11,52.56,5,52.535,39.17647,52.56,5.12
52.63,2,52.63,17,52.63,6,52.605,38.11765,52.63,0
52.7,6,52.7,10,52.7,7,52.675,39.17647,52.7,5.12
52.77,2,52.77,8,52.77,10,52.745,44.47059,52.77,5.12
52.84,5,52.84,5,52.84,3,52.815,52.94118,52.84,5.12
52.91,6,52.91,12,52.91,3,52.885,36,52.91,0
52.98,5,52.98,10,52.98,5,52.955,52.94118,52.98,5.12
53.05,2,53.05,10,53.05,12,53.025,39.17647,53.05,0
53.12,2,53.12,7,53.12,9,53.095,51.88235,53.12,0
53.19,4,53.19,13,53.19,6,53.165,51.88235,53.19,5.12
53.26,6,53.26,8,53.26,6,53.235,37.05882,53.26,5.12
53.33,3,53.33,8,53.33,3,53.305,37.05882,53.33,0
53.4,4,53.4,6,53.4,4,53.375,63.52941,53.4,5.12
53.47,3,53.47,13,53.47,6,53.445,46.58823,53.47,15.36
53.54,3,53.54,9,53.54,8,53.515,67.76471,53.54,10.24
53.61,4,53.61,12,53.61,7,53.585,66.70588,53.61,0
53.68,1,53.68,9,53.68,8,53.655,56.11765,53.68,0
53.75,4,53.75,8,53.75,9,53.725,64.58823,53.75,5.12
53.82,4,53.82,12,53.82,8,53.795,69.88235,53.82,0
53.89,4,53.89,12,53.89,9,53.865,58.23529,53.89,0
53.96,5,53.96,14,53.96,5,53.935,80.47059,53.96,5.12
54.03,2,54.03,9,54.03,7,54.005,69.88235,54.03,5.12
54.1,3,54.1,14,54.1,12,54.075,83.64706,54.1,5.12
54.17,6,54.17,7,54.17,7,54.145,90,54.17,5.12
54.24,4,54.24,8,54.24,16,54.215,84.70588,54.24,0
54.31,1,54.31,21,54.31,17,54.285,109.0588,54.31,0
54.38,6,54.38,20,54.38,18,54.355,100.5882,54.38,10.24
54.45,1,54.45,16,54.45,19,54.425,122.8235,54.45,10.24
54.52,8,54.52,33,54.52,34,54.495,117.5294,54.52,10.24
54.59,6,54.59,54,54.59,49,54.565,91.05882,54.59,15.36
54.66,12,54.66,153,54.66,96,54.635,102.7059,54.66,51.2
54.73,23,54.73,326,54.73,82,54.705,103.7647,54.73,56.32
54.8,47,54.8,250,54.8,67,54.775,87.88235,54.8,102.4
54.87,98,54.87,116,54.87,42,54.845,66.70588,54.87,76.8
54.94,69,54.94,67,54.94,26,54.915,70.94118,54.94,92.16
55.01,54,55.01,47,55.01,21,54.985,56.11765,55.01,66.56
55.08,49,55.08,31,55.08,11,55.055,33.88235,55.08,30.72
55.15,27,55.15,29,55.15,13,55.125,34.94118,55.15,20.48
55.22,21,55.22,15,55.22,9,55.195,40.23529,55.22,20.48
55.29,12,55.29,28,55.29,13,55.265,37.05882,55.29,10.24
55.36,7,55.36,12,55.36,9,55.335,34.94118,55.36,5.12
55.43,3,55.43,15,55.43,8,55.405,31.76471,55.43,5.12
55.5,7,55.5,20,55.5,6,55.475,44.47059,55.5,0
55.57,3,55.57,9,55.57,9,55.545,26.47059,55.57,0
55.64,3,55.64,10,55.64,5,55.615,36,55.64,5.12
55.71,3,55.71,12,55.71,9,55.685,40.23529,55.71,5.12
55.78,3,55.78,10,55.78,6,55.755,33.88235,55.78,5.12
55.85,0,55.85,7,55.85,8,55.825,22.23529,55.85,0
55.92,0,55.92,9,55.92,8,55.895,25.41176,55.92,0
55.99,1,55.99,13,55.99,6,55.965,26.47059,55.99,15.36
56.06,2,56.06,5,56.06,5,56.035,28.58824,56.06,0
56.13,3,56.13,10,56.13,4,56.105,21.17647,56.13,0
56.2,1,56.2,9,56.2,7,56.175,26.47059,56.2,5.12
56.27,3,56.27,6,56.27,5,56.245,23.29412,56.27,5.12
56.34,1,56.34,8,56.34,5,56.315,18,56.34,5.12
56.41,1,56.41,10,56.41,5,56.385,18,56.41,5.12
56.48,1,56.48,8,56.48,8,56.455,26.47059,56.48,5.12
56.55,4,56.55,7,56.55,3,56.525,21.17647,56.55,5.12
56.62,2,56.62,10,56.62,4,56.595,20.11765,56.62,0
56.69,2,56.69,9,56.69,1,56.665,26.47059,56.69,0
56.76,1,56.76,12,56.76,6,56.735,13.76471,56.76,10.24
56.83,2,56.83,10,56.83,2,56.805,18,56.83,5.12
56.9,1,56.9,8,56.9,8,56.875,19.05882,56.9,0
56.97,2,56.97,10,56.97,9,56.945,14.82353,56.97,0
57.04,1,57.04,12,57.04,5,57.015,18,57.04,0
57.11,3,57.11,7,57.11,4,57.085,19.05882,57.11,15.36
57.18,0,57.18,11,57.18,7,57.155,12.70588,57.18,0
57.25,3,57.25,6,57.25,7,57.225,12.70588,57.25,10.24
57.32,3,57.32,8,57.32,2,57.295,14.82353,57.32,0
57.39,3,57.39,15,57.39,7,57.365,20.11765,57.39,0
57.46,1,57.46,7,57.46,6,57.435,19.05882,57.46,0
57.53,1,57.53,14,57.53,4,57.505,15.88235,57.53,5.12
57.6,1,57.6,12,57.6,9,57.575,13.76471,57.6,5.12
57.67,2,57.67,15,57.67,6,57.645,13.76471,57.67,5.12
57.74,3,57.74,9,57.74,5,57.715,21.17647,57.74,0
57.81,1,57.81,2,57.81,10,57.785,12.70588,57.81,0
57.88,0,57.88,14,57.88,8,57.855,19.05882,57.88,5.12
57.95,3,57.95,9,57.95,2,57.925,15.88235,57.95,0
58.02,2,58.02,14,58.02,8,57.995,11.64706,58.02,0
58.09,0,58.09,8,58.09,7,58.065,21.17647,58.09,0
58.16,2,58.16,9,58.16,8,58.135,10.58823,58.16,0
58.23,2,58.23,14,58.23,10,58.205,14.82353,58.23,0
58.3,0,58.3,6,58.3,8,58.275,10.58823,58.3,5.12
58.37,0,58.37,17,58.37,5,58.345,9.529411,58.37,0
58.44,2,58.44,8,58.44,8,58.415,22.23529,58.44,0
58.51,2,58.51,7,58.51,5,58.485,19.05882,58.51,10.24
58.58,0,58.58,10,58.58,7,58.555,15.88235,58.58,0
58.65,1,58.65,12,58.65,9,58.625,6.352941,58.65,5.12
58.72,0,58.72,10,58.72,4,58.695,18,58.72,0
58.79,3,58.79,10,58.79,5,58.765,10.58823,58.79,0
58.86,2,58.86,8,58.86,4,58.835,13.76471,58.86,0
58.93,2,58.93,7,58.93,6,58.905,22.23529,58.93,5.12
59,4,59,4,59,4,58.975,12.70588,59,10.24
59.07,3,59.07,7,59.07,10,59.045,11.64706,59.07,0
59.14,0,59.14,9,59.14,2,59.115,10.58823,59.14,5.12
59.21,1,59.21,11,59.21,6,59.185,15.88235,59.21,10.24
59.28,2,59.28,13,59.28,9,59.255,11.64706,59.28,5.12
59.35,0,59.35,8,59.35,2,59.325,9.529411,59.35,5.12
59.42,3,59.42,8,59.42,3,59.395,12.70588,59.42,0
59.49,1,59.49,6,59.49,9,59.465,11.64706,59.49,5.12
59.56,0,59.56,7,59.56,6,59.535,15.88235,59.56,5.12
59.63,3,59.63,7,59.63,3,59.605,10.58823,59.63,10.24
59.7,2,59.7,9,59.7,2,59.675,12.70588,59.7,0
59.77,0,59.77,5,59.77,1,59.745,9.529411,59.77,10.24
59.84,2,59.84,9,59.84,3,59.815,9.529411,59.84,5.12
59.91,1,59.91,7,59.91,5,59.885,22.23529,59.91,10.24
59.98,1,59.98,10,59.98,6,59.955,12.70588,59.98,5.12
,,60.05,8,60.05,6,,,,
,,60.12,9,60.12,8,,,,
,,60.19,10,60.19,6,,,,
,,60.26,6,60.26,4,,,,
,,60.33,19,60.33,4,,,,
,,60.4,10,60.4,8,,,,
,,60.47,9,60.47,5,,,,
,,60.54,12,60.54,3,,,,
,,60.61,11,60.61,5,,,,
,,60.68,6,60.68,7,,,,
,,60.75,9,60.75,3,,,,
,,60.82,5,60.82,5,,,,
,,60.89,10,60.89,8,,,,
,,60.96,8,60.96,5,,,,
,,61.03,12,61.03,4,,,,
,,61.1,14,61.1,3,,,,
,,61.17,9,61.17,8,,,,
,,61.24,5,61.24,5,,,,
,,61.31,8,61.31,6,,,,
,,61.38,8,61.38,3,,,,
,,61.45,11,61.45,7,,,,
,,61.52,11,61.52,10,,,,
,,61.59,8,61.59,5,,,,
,,61.66,9,61.66,8,,,,
,,61.73,6,61.73,3,,,,
,,61.8,10,61.8,6,,,,
,,61.87,7,61.87,7,,,,
,,61.94,6,61.94,3,,,,
,,62.01,13,62.01,10,,,,
,,62.08,7,62.08,6,,,,
,,62.15,5,62.15,3,,,,
,,62.22,5,62.22,6,,,,
,,62.29,10,62.29,2,,,,
,,62.36,5,62.36,5,,,,
,,62.43,6,62.43,3,,,,
,,62.5,5,62.5,4,,,,
,,62.57,7,62.57,2,,,,
,,62.64,5,62.64,6,,,,
,,62.71,10,62.71,7,,,,
,,62.78,6,62.78,8,,,,
,,62.85,9,62.85,4,,,,
,,62.92,12,62.92,3,,,,
,,62.99,7,62.99,6,,,,
,,63.06,4,63.06,7,,,,
,,63.13,11,63.13,8,,,,
,,63.2,16,63.2,5,,,,
,,63.27,9,63.27,11,,,,
,,63.34,9,63.34,7,,,,
,,63.41,20,63.41,9,,,,
,,63.48,15,63.48,6,,,,
,,63.55,7,63.55,11,,,,
,,63.62,9,63.62,5,,,,
,,63.69,12,63.69,7,,,,
,,63.76,9,63.76,3,,,,
,,63.83,9,63.83,8,,,,
,,63.9,8,63.9,8,,,,
,,63.97,16,63.97,7,,,,
,,64.04,11,64.04,6,,,,
,,64.11,6,64.11,3,,,,
,,64.18,8,64.18,6,,,,
,,64.25,13,64.25,2,,,,
,,64.32,10,64.32,6,,,,
,,64.39,6,64.39,2,,,,
,,64.46,10,64.46,6,,,,
,,64.53,12,64.53,2,,,,
,,64.6,7,64.6,5,,,,
,,64.67,14,64.67,9,,,,
,,64.74,8,64.74,5,,,,
,,64.81,4,64.81,6,,,,
,,64.88,6,64.88,5,,,,
,,64.95,9,64.95,7,,,,
,,65.02,5,65.02,6,,,,
,,65.09,11,65.09,6,,,,
,,65.16,9,65.16,9,,,,
,,65.23,10,65.23,3,,,,
,,65.3,12,65.3,3,,,,
,,65.37,15,65.37,5,,,,
,,65.44,7,65.44,8,,,,
,,65.51,4,65.51,4,,,,
,,65.58,6,65.58,8,,,,
,,65.65,16,65.65,2,,,,
,,65.72,5,65.72,5,,,,
,,65.79,14,65.79,10,,,,
,,65.86,4,65.86,6,,,,
,,65.93,11,65.93,4,,,,
,,66,8,66,3,,,,
,,66.07,5,66.07,5,,,,
,,66.14,12,66.14,8,,,,
,,66.21,3,66.21,9,,,,
,,66.28,7,66.28,4,,,,
,,66.35,6,66.35,4,,,,
,,66.42,6,66.42,8,,,,
,,66.49,5,66.49,6,,,,
,,66.56,6,66.56,7,,,,
,,66.63,9,66.63,3,,,,
,,66.7,6,66.7,5,,,,
,,66.77,5,66.77,7,,,,
,,66.84,15,66.84,6,,,,
,,66.91,10,66.91,9,,,,
,,66.98,13,66.98,6,,,,
,,67.05,9,67.05,4,,,,
,,67.12,11,67.12,5,,,,
,,67.19,7,67.19,4,,,,
,,67.26,10,67.26,2,,,,
,,67.33,14,67.33,5,,,,
,,67.4,7,67.4,2,,,,
,,67.47,5,67.47,6,,,,
,,67.54,6,67.54,7,,,,
,,67.61,7,67.61,6,,,,
,,67.68,5,67.68,3,,,,
,,67.75,6,67.75,5,,,,
,,67.82,14,67.82,4,,,,
,,67.89,7,67.89,3,,,,
,,67.96,6,67.96,3,,,,
,,68.03,7,68.03,10,,,,
,,68.1,12,68.1,6,,,,
,,68.17,7,68.17,4,,,,
,,68.24,7,68.24,3,,,,
,,68.31,12,68.31,4,,,,
,,68.38,8,68.38,6,,,,
,,68.45,6,68.45,3,,,,
,,68.52,9,68.52,1,,,,
,,68.59,13,68.59,5,,,,
,,68.66,6,68.66,4,,,,
,,68.73,11,68.73,4,,,,
,,68.8,4,68.8,2,,,,
,,68.87,7,68.87,7,,,,
,,68.94,12,68.94,5,,,,
,,69.01,7,69.01,1,,,,
,,69.08,14,69.08,4,,,,
,,69.15,16,69.15,5,,,,
,,69.22,6,69.22,3,,,,
,,69.29,6,69.29,8,,,,
,,69.36,5,69.36,8,,,,
,,69.43,6,69.43,4,,,,
,,69.5,4,69.5,2,,,,
,,69.57,4,69.57,7,,,,
,,69.64,12,69.64,4,,,,
,,69.71,12,69.71,7,,,,
,,69.78,11,69.78,3,,,,
,,69.85,6,69.85,5,,,,
,,69.92,10,69.92,3,,,,
,,69.99,3,69.99,6,,,,
,,70.06,4,70.06,9,,,,
,,70.13,10,70.13,7,,,,
,,70.2,10,70.2,5,,,,
,,70.27,10,70.27,4,,,,
,,70.34,9,70.34,6,,,,
,,70.41,8,70.41,5,,,,
,,70.48,8,70.48,8,,,,
,,70.55,9,70.55,8,,,,
,,70.62,5,70.62,4,,,,
,,70.69,13,70.69,7,,,,
,,70.76,11,70.76,5,,,,
,,70.83,12,70.83,7,,,,
,,70.9,13,70.9,10,,,,
,,70.97,7,70.97,4,,,,
,,71.04,13,71.04,8,,,,
,,71.11,6,71.11,5,,,,
,,71.18,7,71.18,8,,,,
,,71.25,9,71.25,5,,,,
,,71.32,9,71.32,6,,,,
,,71.39,18,71.39,1,,,,
,,71.46,13,71.46,6,,,,
,,71.53,12,71.53,10,,,,
,,71.6,12,71.6,9,,,,
,,71.67,10,71.67,13,,,,
,,71.74,4,71.74,8,,,,
,,71.81,12,71.81,15,,,,
,,71.88,10,71.88,10,,,,
,,71.95,10,71.95,10,,,,
,,72.02,15,72.02,10,,,,
,,72.09,12,72.09,8,,,,
,,72.16,14,72.16,11,,,,
,,72.23,16,72.23,10,,,,
,,72.3,25,72.3,12,,,,
,,72.37,51,72.37,17,,,,
,,72.44,91,72.44,37,,,,
,,72.51,1274,72.51,1453,,,,
,,72.58,48713,72.58,9013,,,,
,,72.65,67,72.65,76,,,,
,,72.72,27,72.72,15,,,,
,,72.79,17,72.79,17,,,,
,,72.86,20,72.86,10,,,,
,,72.93,20,72.93,7,,,,
,,73,14,73,10,,,,
,,73.07,12,73.07,10,,,,
,,73.14,11,73.14,8,,,,
,,73.21,9,73.21,5,,,,
,,73.28,15,73.28,9,,,,
,,73.35,13,73.35,6,,,,
,,73.42,12,73.42,4,,,,
,,73.49,7,73.49,9,,,,
,,73.56,7,73.56,5,,,,
,,73.63,8,73.63,6,,,,
,,73.7,7,73.7,7,,,,
,,73.77,5,73.77,9,,,,
,,73.84,12,73.84,10,,,,
,,73.91,9,73.91,6,,,,
,,73.98,9,73.98,4,,,,
,,74.05,10,74.05,4,,,,
,,74.12,12,74.12,10,,,,
,,74.19,4,74.19,6,,,,
,,74.26,3,74.26,1,,,,
,,74.33,13,74.33,5,,,,
,,74.4,10,74.4,7,,,,
,,74.47,9,74.47,7,,,,
,,74.54,6,74.54,10,,,,
,,74.61,8,74.61,3,,,,
,,74.68,10,74.68,7,,,,
,,74.75,10,74.75,6,,,,
,,74.82,10,74.82,2,,,,
,,74.89,8,74.89,6,,,,
,,74.96,5,74.96,5,,,,
,,75.03,8,75.03,6,,,,
,,75.1,7,75.1,4,,,,
,,75.17,9,75.17,4,,,,
,,75.24,6,75.24,9,,,,
,,75.31,6,75.31,5,,,,
,,75.38,8,75.38,13,,,,
,,75.45,12,75.45,4,,,,
,,75.52,12,75.52,2,,,,
,,75.59,9,75.59,4,,,,
,,75.66,6,75.66,5,,,,
,,75.73,10,75.73,1,,,,
,,75.8,13,75.8,9,,,,
,,75.87,7,75.87,5,,,,
,,75.94,9,75.94,5,,,,
,,76.01,6,76.01,1,,,,
,,76.08,13,76.08,4,,,,
,,76.15,6,76.15,5,,,,
,,76.22,9,76.22,5,,,,
,,76.29,7,76.29,5,,,,
,,76.36,8,76.36,2,,,,
,,76.43,6,76.43,2,,,,
,,76.5,10,76.5,3,,,,
,,76.57,11,76.57,7,,,,
,,76.64,8,76.64,8,,,,
,,76.71,8,76.71,4,,,,
,,76.78,10,76.78,12,,,,
,,76.85,8,76.85,6,,,,
,,76.92,13,76.92,5,,,,
,,76.99,8,76.99,4,,,,
,,77.06,3,77.06,2,,,,
,,77.13,9,77.13,4,,,,
,,77.2,10,77.2,1,,,,
,,77.27,15,77.27,4,,,,
,,77.34,6,77.34,5,,,,
,,77.41,9,77.41,9,,,,
,,77.48,7,77.48,10,,,,
,,77.55,9,77.55,8,,,,
,,77.62,8,77.62,3,,,,
,,77.69,7,77.69,6,,,,
,,77.76,7,77.76,4,,,,
,,77.83,5,77.83,4,,,,
,,77.9,6,77.9,3,,,,
,,77.97,7,77.97,6,,,,
,,78.04,4,78.04,7,,,,
,,78.11,8,78.11,4,,,,
,,78.18,10,78.18,6,,,,
,,78.25,6,78.25,6,,,,
,,78.32,3,78.32,4,,,,
,,78.39,8,78.39,2,,,,
,,78.46,6,78.46,3,,,,
,,78.53,5,78.53,9,,,,
,,78.6,8,78.6,2,,,,
,,78.67,4,78.67,1,,,,
,,78.74,9,78.74,7,,,,
,,78.81,7,78.81,3,,,,
,,78.88,9,78.88,3,,,,
,,78.95,8,78.95,12,,,,
,,79.02,10,79.02,0,,,,
,,79.09,12,79.09,6,,,,
,,79.16,10,79.16,5,,,,
,,79.23,5,79.23,3,,,,
,,79.3,6,79.3,12,,,,
,,79.37,6,79.37,3,,,,
,,79.44,5,79.44,1,,,,
,,79.51,10,79.51,8,,,,
,,79.58,8,79.58,5,,,,
,,79.65,14,79.65,4,,,,
,,79.72,2,79.72,4,,,,
,,79.79,6,79.79,7,,,,
,,79.86,9,79.86,4,,,,
,,79.93,5,79.93,7,,,,
,,80,5,80,6,,,,
,,80.07,7,80.07,5,,,,
,,80.14,11,80.14,8,,,,
,,80.21,9,80.21,5,,,,
,,80.28,8,80.28,5,,,,
,,80.35,5,80.35,6,,,,
,,80.42,6,80.42,6,,,,
,,80.49,8,80.49,5,,,,
,,80.56,9,80.56,8,,,,
,,80.63,8,80.63,4,,,,
,,80.7,11,80.7,4,,,,
,,80.77,11,80.77,3,,,,
,,80.84,13,80.84,1,,,,
,,80.91,12,80.91,10,,,,
,,80.98,7,80.98,7,,,,
,,81.05,11,81.05,5,,,,
,,81.12,16,81.12,9,,,,
,,81.19,5,81.19,10,,,,
,,81.26,9,81.26,11,,,,
,,81.33,12,81.33,5,,,,
,,81.4,6,81.4,4,,,,
,,81.47,5,81.47,2,,,,
,,81.54,10,81.54,7,,,,
,,81.61,9,81.61,6,,,,
,,81.68,23,81.68,6,,,,
,,81.75,13,81.75,8,,,,
,,81.82,19,81.82,15,,,,
,,81.89,24,81.89,21,,,,
,,81.96,30,81.96,14,,,,
,,82.03,40,82.03,27,,,,
,,82.1,69,82.1,10,,,,
,,82.17,59,82.17,16,,,,
,,82.24,32,82.24,11,,,,
,,82.31,26,82.31,6,,,,
,,82.38,25,82.38,18,,,,
,,82.45,13,82.45,10,,,,
,,82.52,13,82.52,9,,,,
,,82.59,11,82.59,8,,,,
,,82.66,9,82.66,6,,,,
,,82.73,10,82.73,4,,,,
,,82.8,4,82.8,9,,,,
,,82.87,10,82.87,6,,,,
,,82.94,8,82.94,7,,,,
,,83.01,13,83.01,1,,,,
,,83.08,9,83.08,4,,,,
,,83.15,7,83.15,9,,,,
,,83.22,9,83.22,2,,,,
,,83.29,8,83.29,6,,,,
,,83.36,10,83.36,3,,,,
,,83.43,10,83.43,8,,,,
,,83.5,7,83.5,4,,,,
,,83.57,10,83.57,9,,,,
,,83.64,10,83.64,6,,,,
,,83.71,6,83.71,5,,,,
,,83.78,8,83.78,2,,,,
,,83.85,7,83.85,8,,,,
,,83.92,10,83.92,5,,,,
,,83.99,9,83.99,3,,,,
,,84.06,3,84.06,5,,,,
,,84.13,8,84.13,5,,,,
,,84.2,6,84.2,5,,,,
,,84.27,2,84.27,8,,,,
,,84.34,9,84.34,4,,,,
,,84.41,11,84.41,4,,,,
,,84.48,6,84.48,5,,,,
,,84.55,8,84.55,8,,,,
,,84.62,6,84.62,7,,,,
,,84.69,9,84.69,5,,,,
,,84.76,6,84.76,8,,,,
,,84.83,5,84.83,6,,,,
,,84.9,4,84.9,9,,,,
,,84.97,11,84.97,7,,,,
,,85.04,5,85.04,5,,,,
,,85.11,13,85.11,4,,,,
,,85.18,5,85.18,10,,,,
,,85.25,8,85.25,3,,,,
,,85.32,9,85.32,4,,,,
,,85.39,14,85.39,6,,,,
,,85.46,5,85.46,3,,,,
,,85.53,6,85.53,6,,,,
,,85.6,6,85.6,4,,,,
,,85.67,5,85.67,7,,,,
,,85.74,8,85.74,4,,,,
,,85.81,14,85.81,4,,,,
,,85.88,19,85.88,3,,,,
,,85.95,6,85.95,4,,,,
,,86.02,7,86.02,5,,,,
,,86.09,12,86.09,2,,,,
,,86.16,10,86.16,3,,,,
,,86.23,8,86.23,4,,,,
,,86.3,9,86.3,8,,,,
,,86.37,7,86.37,7,,,,
,,86.44,8,86.44,5,,,,
,,86.51,4,86.51,11,,,,
,,86.58,5,86.58,1,,,,
,,86.65,14,86.65,6,,,,
,,86.72,8,86.72,4,,,,
,,86.79,13,86.79,7,,,,
,,86.86,7,86.86,6,,,,
,,86.93,9,86.93,3,,,,
,,87,15,87,5,,,,
,,87.07,16,87.07,8,,,,
,,87.14,10,87.14,4,,,,
,,87.21,9,87.21,9,,,,
,,87.28,5,87.28,3,,,,
,,87.35,4,87.35,4,,,,
,,87.42,4,87.42,6,,,,
,,87.49,9,87.49,7,,,,
,,87.56,8,87.56,3,,,,
,,87.63,15,87.63,5,,,,
,,87.7,10,87.7,5,,,,
,,87.77,9,87.77,4,,,,
,,87.84,5,87.84,3,,,,
,,87.91,8,87.91,3,,,,
,,87.98,17,87.98,3,,,,
,,88.05,7,88.05,7,,,,
,,88.12,8,88.12,4,,,,
,,88.19,12,88.19,1,,,,
,,88.26,8,88.26,8,,,,
,,88.33,9,88.33,2,,,,
,,88.4,12,88.4,3,,,,
,,88.47,10,88.47,4,,,,
,,88.54,11,88.54,7,,,,
,,88.61,9,88.61,4,,,,
,,88.68,5,88.68,2,,,,
,,88.75,8,88.75,3,,,,
,,88.82,6,88.82,5,,,,
,,88.89,12,88.89,7,,,,
,,88.96,13,88.96,5,,,,
,,89.03,6,89.03,6,,,,
,,89.1,9,89.1,5,,,,
,,89.17,4,89.17,8,,,,
,,89.24,9,89.24,2,,,,
,,89.31,10,89.31,3,,,,
,,89.38,6,89.38,6,,,,
,,89.45,3,89.45,4,,,,
,,89.52,6,89.52,4,,,,
,,89.59,10,89.59,9,,,,
,,89.66,11,89.66,3,,,,
,,89.73,6,89.73,4,,,,
,,89.8,12,89.8,4,,,,
,,89.87,11,89.87,4,,,,
,,89.94,6,89.94,5,,,,
,,90.01,12,90.01,7,,,,
,,90.08,10,90.08,4,,,,
,,90.15,5,90.15,4,,,,
,,90.22,6,90.22,5,,,,
,,90.29,15,90.29,6,,,,
,,90.36,10,90.36,2,,,,
,,90.43,9,90.43,4,,,,
,,90.5,13,90.5,5,,,,
,,90.57,3,90.57,5,,,,
,,90.64,8,90.64,6,,,,
,,90.71,9,90.71,4,,,,
,,90.78,8,90.78,4,,,,
,,90.85,8,90.85,7,,,,
,,90.92,7,90.92,6,,,,
,,90.99,9,90.99,7,,,,
,,91.06,9,91.06,11,,,,
,,91.13,11,91.13,6,,,,
,,91.2,8,91.2,7,,,,
,,91.27,8,91.27,5,,,,
,,91.34,10,91.34,5,,,,
,,91.41,8,91.41,7,,,,
,,91.48,4,91.48,5,,,,
,,91.55,13,91.55,7,,,,
,,91.62,10,91.62,8,,,,
,,91.69,11,91.69,5,,,,
,,91.76,5,91.76,4,,,,
,,91.83,14,91.83,6,,,,
,,91.9,10,91.9,7,,,,
,,91.97,13,91.97,6,,,,
,,92.04,13,92.04,11,,,,
,,92.11,20,92.11,7,,,,
,,92.18,19,92.18,9,,,,
,,92.25,20,92.25,9,,,,
,,92.32,30,92.32,8,,,,
,,92.39,53,92.39,17,,,,
,,92.46,87,92.46,18,,,,
,,92.53,87,92.53,23,,,,
,,92.6,89,92.6,20,,,,
,,92.67,69,92.67,23,,,,
,,92.74,61,92.74,17,,,,
,,92.81,42,92.81,14,,,,
,,92.88,26,92.88,12,,,,
,,92.95,33,92.95,11,,,,
,,93.02,22,93.02,5,,,,
,,93.09,18,93.09,10,,,,
,,93.16,15,93.16,14,,,,
,,93.23,8,93.23,10,,,,
,,93.3,13,93.3,12,,,,
,,93.37,13,93.37,7,,,,
,,93.44,12,93.44,10,,,,
,,93.51,9,93.51,9,,,,
,,93.58,13,93.58,9,,,,
,,93.65,14,93.65,6,,,,
,,93.72,13,93.72,3,,,,
,,93.79,8,93.79,5,,,,
,,93.86,9,93.86,4,,,,
,,93.93,9,93.93,6,,,,
,,94,11,94,4,,,,
,,94.07,8,94.07,5,,,,
,,94.14,10,94.14,8,,,,
,,94.21,11,94.21,4,,,,
,,94.28,9,94.28,7,,,,
,,94.35,11,94.35,5,,,,
,,94.42,8,94.42,7,,,,
,,94.49,5,94.49,6,,,,
,,94.56,5,94.56,8,,,,
,,94.63,8,94.63,4,,,,
,,94.7,11,94.7,6,,,,
,,94.77,9,94.77,7,,,,
,,94.84,5,94.84,6,,,,
,,94.91,7,94.91,9,,,,
,,94.98,4,94.98,3,,,,
,,95.05,10,95.05,7,,,,
,,95.12,10,95.12,7,,,,
,,95.19,10,95.19,6,,,,
,,95.26,13,95.26,8,,,,
,,95.33,6,95.33,7,,,,
,,95.4,3,95.4,4,,,,
,,95.47,10,95.47,8,,,,
,,95.54,11,95.54,8,,,,
,,95.61,10,95.61,6,,,,
,,95.68,13,95.68,7,,,,
,,95.75,3,95.75,3,,,,
,,95.82,8,95.82,7,,,,
,,95.89,6,95.89,6,,,,
,,95.96,5,95.96,5,,,,
,,96.03,6,96.03,3,,,,
,,96.1,8,96.1,6,,,,
,,96.17,4,96.17,0,,,,
,,96.24,9,96.24,6,,,,
,,96.31,8,96.31,4,,,,
,,96.38,10,96.38,8,,,,
,,96.45,7,96.45,5,,,,
,,96.52,7,96.52,3,,,,
,,96.59,6,96.59,4,,,,
,,96.66,5,96.66,5,,,,
,,96.73,7,96.73,6,,,,
,,96.8,6,96.8,4,,,,
,,96.87,9,96.87,5,,,,
,,96.94,12,96.94,2,,,,
,,97.01,6,97.01,9,,,,
,,97.08,9,97.08,8,,,,
,,97.15,8,97.15,4,,,,
,,97.22,11,97.22,6,,,,
,,97.29,7,97.29,6,,,,
,,97.36,15,97.36,1,,,,
,,97.43,11,97.43,7,,,,
,,97.5,8,97.5,2,,,,
,,97.57,7,97.57,3,,,,
,,97.64,8,97.64,1,,,,
,,97.71,9,97.71,6,,,,
,,97.78,12,97.78,2,,,,
,,97.85,12,97.85,2,,,,
,,97.92,9,97.92,5,,,,
,,97.99,4,97.99,4,,,,
,,98.06,5,98.06,4,,,,
,,98.13,4,98.13,2,,,,
,,98.2,4,98.2,7,,,,
,,98.27,5,98.27,6,,,,
,,98.34,8,98.34,13,,,,
,,98.41,8,98.41,8,,,,
,,98.48,11,98.48,4,,,,
,,98.55,8,98.55,9,,,,
,,98.62,6,98.62,2,,,,
,,98.69,10,98.69,5,,,,
,,98.76,8,98.76,1,,,,
,,98.83,5,98.83,5,,,,
,,98.9,6,98.9,4,,,,
,,98.97,7,98.97,5,,,,
,,99.04,12,99.04,10,,,,
,,99.11,7,99.11,4,,,,
,,99.18,8,99.18,6,,,,
,,99.25,5,99.25,8,,,,
,,99.32,9,99.32,5,,,,
,,99.39,13,99.39,6,,,,
,,99.46,7,99.46,8,,,,
,,99.53,8,99.53,8,,,,
,,99.6,14,99.6,6,,,,
,,99.67,8,99.67,2,,,,
,,99.74,6,99.74,4,,,,
,,99.81,8,99.81,8,,,,
,,99.88,7,99.88,4,,,,
,,99.95,4,99.95,4,,,,
,,100,5,100,3,,,,