File: Data/Gd (20 nm)/Gd (20 nm) XRD-LOW INTENSITY.xy
10	2
10.07	1
10.14	3
10.21	2
10.28	3
10.35	2
10.42	0
10.49	0
10.56	1
10.63	2
10.7	3
10.77	0
10.84	0
10.91	1
10.98	1
11.05	4
11.12	1
11.19	2
11.26	2
11.33	1
11.4	3
11.47	0
11.54	4
11.61	1
11.68	4
11.75	3
11.82	2
11.89	0
11.96	4
12.03	4
12.1	2
12.17	3
12.24	1
12.31	4
12.38	1
12.45	5
12.52	4
12.59	4
12.66	2
12.73	2
12.8	3
12.87	1
12.94	2
13.01	1
13.08	2
13.15	2
13.22	0
13.29	2
13.36	4
13.43	4
13.5	5
13.57	2
13.64	4
13.71	4
13.78	9
13.85	4
13.92	5
13.99	9
14.06	11
14.13	7
14.2	12
14.27	8
14.34	3
14.41	6
14.48	5
14.55	5
14.62	1
14.69	2
14.76	3
14.83	3
14.9	6
14.97	4
15.04	3
15.11	2
15.18	4
15.25	6
15.32	4
15.39	2
15.46	4
15.53	8
15.6	3
15.67	2
15.74	6
15.81	3
15.88	4
15.95	3
16.02	2
16.09	3
16.16	3
16.23	5
16.3	4
16.37	9
16.44	5
16.51	1
16.58	4
16.65	6
16.72	3
16.79	3
16.86	8
16.93	4
17	5
17.07	4
17.14	6
17.21	4
17.28	6
17.35	3
17.42	1
17.49	4
17.56	4
17.63	8
17.7	2
17.77	4
17.84	2
17.91	2
17.98	4
18.05	4
18.12	7
18.19	11
18.26	5
18.33	4
18.4	4
18.47	3
18.54	4
18.61	5
18.68	5
18.75	4
18.82	3
18.89	2
18.96	2
19.03	2
19.1	2
19.17	3
19.24	4
19.31	7
19.38	6
19.45	8
19.52	5
19.59	7
19.66	8
19.73	5
19.8	3
19.87	4
19.94	3
20.01	4
20.08	3
20.15	1
20.22	3
20.29	2
20.36	6
20.43	2
20.5	5
20.57	3
20.64	4
20.71	4
20.78	3
20.85	4
20.92	3
20.99	5
21.06	4
21.13	1
21.2	1
21.27	4
21.34	3
21.41	2
21.48	5
21.55	5
21.62	5
21.69	4
21.76	1
21.83	7
21.9	5
21.97	2
22.04	4
22.11	2
22.18	3
22.25	7
22.32	6
22.39	3
22.46	1
22.53	6
22.6	10
22.67	23
22.74	19824
22.81	60
22.88	14
22.95	8
23.02	7
23.09	4
23.16	3
23.23	4
23.3	4
23.37	2
23.44	2
23.51	8
23.58	3
23.65	4
23.72	7
23.79	4
23.86	1
23.93	3
24	3
24.07	2
24.14	2
24.21	5
24.28	7
24.35	8
24.42	1
24.49	3
24.56	2
24.63	2
24.7	4
24.77	0
24.84	5
24.91	2
24.98	1
25.05	6
25.12	4
25.19	2
25.26	2
25.33	3
25.4	4
25.47	6
25.54	2
25.61	9
25.68	4
25.75	2
25.82	5
25.89	5
25.96	7
26.03	1
26.1	3
26.17	2
26.24	0
26.31	0
26.38	1
26.45	6
26.52	2
26.59	2
26.66	5
26.73	7
26.8	3
26.87	3
26.94	5
27.01	3
27.08	2
27.15	2
27.22	6
27.29	0
27.36	7
27.43	5
27.5	2
27.57	3
27.64	2
27.71	1
27.78	1
27.85	5
27.92	1
27.99	1
28.06	3
28.13	0
28.2	3
28.27	5
28.34	3
28.41	3
28.48	0
28.55	2
28.62	2
28.69	3
28.76	2
28.83	1
28.9	1
28.97	2
29.04	4
29.11	0
29.18	0
29.25	2
29.32	2
29.39	1
29.46	0
29.53	0
29.6	3
29.67	0
29.74	1
29.81	0
29.88	0
29.95	2
30.02	3
30.09	1
30.16	2
30.23	4
30.3	5
30.37	4
30.44	0
30.51	1
30.58	1
30.65	3
30.72	2
30.79	4
30.86	1
30.93	4
31	1
31.07	5
31.14	5
31.21	2
31.28	1
31.35	0
31.42	7
31.49	1
31.56	2
31.63	2
31.7	4
31.77	1
31.84	2
31.91	2
31.98	3
32.05	2
32.12	1
32.19	2
32.26	0
32.33	4
32.4	1
32.47	2
32.54	1
32.61	2
32.68	0
32.75	2
32.82	1
32.89	4
32.96	1
33.03	3
33.1	3
33.17	1
33.24	3
33.31	0
33.38	2
33.45	2
33.52	2
33.59	0
33.66	3
33.73	3
33.8	1
33.87	2
33.94	3
34.01	3
34.08	1
34.15	2
34.22	3
34.29	1
34.36	1
34.43	2
34.5	4
34.57	0
34.64	4
34.71	0
34.78	3
34.85	0
34.92	2
34.99	1
35.06	2
35.13	3
35.2	2
35.27	3
35.34	3
35.41	4
35.48	2
35.55	2
35.62	2
35.69	1
35.76	1
35.83	1
35.9	1
35.97	2
36.04	1
36.11	6
36.18	4
36.25	2
36.32	3
36.39	2
36.46	3
36.53	2
36.6	5
36.67	4
36.74	1
36.81	4
36.88	3
36.95	3
37.02	2
37.09	1
37.16	5
37.23	5
37.3	1
37.37	4
37.44	2
37.51	3
37.58	1
37.65	4
37.72	4
37.79	2
37.86	1
37.93	4
38	3
38.07	7
38.14	5
38.21	1
38.28	3
38.35	3
38.42	3
38.49	4
38.56	4
38.63	5
38.7	2
38.77	3
38.84	6
38.91	3
38.98	2
39.05	2
39.12	1
39.19	1
39.26	1
39.33	4
39.4	2
39.47	1
39.54	2
39.61	6
39.68	1
39.75	0
39.82	1
39.89	1
39.96	2
40.03	1
40.1	3
40.17	0
40.24	0
40.31	4
40.38	2
40.45	3
40.52	1
40.59	1
40.66	1
40.73	1
40.8	3
40.87	1
40.94	0
41.01	1
41.08	2
41.15	1
41.22	1
41.29	0
41.36	0
41.43	2
41.5	4
41.57	2
41.64	0
41.71	2
41.78	2
41.85	0
41.92	0
41.99	2
42.06	1
42.13	4
42.2	3
42.27	1
42.34	3
42.41	2
42.48	2
42.55	1
42.62	2
42.69	2
42.76	2
42.83	2
42.9	1
42.97	3
43.04	2
43.11	3
43.18	3
43.25	5
43.32	0
43.39	1
43.46	2
43.53	1
43.6	0
43.67	0
43.74	4
43.81	0
43.88	2
43.95	1
44.02	3
44.09	2
44.16	2
44.23	1
44.3	2
44.37	5
44.44	5
44.51	0
44.58	3
44.65	1
44.72	2
44.79	2
44.86	4
44.93	3
45	2
45.07	2
45.14	3
45.21	2
45.28	3
45.35	4
45.42	4
45.49	5
45.56	1
45.63	7
45.7	5
45.77	7
45.84	7
45.91	11
45.98	8
46.05	13
46.12	16
46.19	19
46.26	56
46.33	150
46.4	1211
46.47	372202
46.54	534
46.61	94
46.68	31
46.75	22
46.82	11
46.89	7
46.96	5
47.03	1
47.1	3
47.17	1
47.24	3
47.31	2
47.38	4
47.45	2
47.52	2
47.59	2
47.66	0
47.73	3
47.8	2
47.87	2
47.94	2
48.01	1
48.08	1
48.15	2
48.22	0
48.29	4
48.36	5
48.43	3
48.5	1
48.57	2
48.64	2
48.71	1
48.78	0
48.85	1
48.92	1
48.99	0
49.06	5
49.13	1
49.2	3
49.27	2
49.34	3
49.41	4
49.48	0
49.55	3
49.62	0
49.69	1
49.76	3
49.83	1
49.9	4
49.97	1
50.04	0
50.11	1
50.18	1
50.25	0
50.32	1
50.39	1
50.46	0
50.53	4
50.6	3
50.67	1
50.74	1
50.81	0
50.88	2
50.95	1
51.02	3
51.09	1
51.16	3
51.23	2
51.3	4
51.37	1
51.44	0
51.51	1
51.58	2
51.65	0
51.72	1
51.79	1
51.86	2
51.93	2
52	4
52.07	2
52.14	1
52.21	1
52.28	0
52.35	2
52.42	0
52.49	2
52.56	0
52.63	1
52.7	1
52.77	3
52.84	2
52.91	0
52.98	0
53.05	1
53.12	1
53.19	3
53.26	3
53.33	0
53.4	2
53.47	1
53.54	0
53.61	1
53.68	3
53.75	2
53.82	3
53.89	4
53.96	1
54.03	2
54.1	1
54.17	1
54.24	0
54.31	4
54.38	3
54.45	2
54.52	1
54.59	1
54.66	4
54.73	1
54.8	0
54.87	0
54.94	0
55.01	0
55.08	0
55.15	1
55.22	3
55.29	3
55.36	3
55.43	4
55.5	2
55.57	2
55.64	2
55.71	1
55.78	1
55.85	1
55.92	2
55.99	1
56.06	2
56.13	2
56.2	0
56.27	0
56.34	0
56.41	1
56.48	1
56.55	0
56.62	2
56.69	0
56.76	3
56.83	1
56.9	2
56.97	0
57.04	1
57.11	2
57.18	1
57.25	1
57.32	2
57.39	2
57.46	1
57.53	4
57.6	1
57.67	2
57.74	1
57.81	0
57.88	0
57.95	4
58.02	2
58.09	1
58.16	4
58.23	1
58.3	1
58.37	1
58.44	2
58.51	1
58.58	0
58.65	2
58.72	0
58.79	1
58.86	2
58.93	1
59	1
59.07	2
59.14	0
59.21	1
59.28	1
59.35	0
59.42	2
59.49	0
59.56	1
59.63	4
59.7	0
59.77	2
59.84	3
59.91	1
59.98	2
60.05	2
60.12	0
60.19	2
60.26	1
60.33	1
60.4	2
60.47	3
60.54	2
60.61	3
60.68	1
60.75	0
60.82	1
60.89	3
60.96	3
61.03	2
61.1	0
61.17	0
61.24	1
61.31	2
61.38	0
61.45	0
61.52	1
61.59	0
61.66	1
61.73	0
61.8	0
61.87	2
61.94	2
62.01	3
62.08	0
62.15	1
62.22	1
62.29	2
62.36	0
62.43	1
62.5	1
62.57	1
62.64	1
62.71	2
62.78	2
62.85	2
62.92	1
62.99	0
63.06	4
63.13	2
63.2	0
63.27	0
63.34	1
63.41	0
63.48	2
63.55	0
63.62	0
63.69	1
63.76	0
63.83	1
63.9	2
63.97	1
64.04	1
64.11	3
64.18	1
64.25	1
64.32	0
64.39	0
64.46	0
64.53	2
64.6	0
64.67	1
64.74	2
64.81	1
64.88	0
64.95	2
65.02	4
65.09	2
65.16	3
65.23	1
65.3	0
65.37	2
65.44	0
65.51	0
65.58	1
65.65	0
65.72	0
65.79	2
65.86	6
65.93	2
66	1
66.07	0
66.14	3
66.21	2
66.28	0
66.35	1
66.42	0
66.49	0
66.56	0
66.63	0
66.7	0
66.77	2
66.84	0
66.91	1
66.98	1
67.05	0
67.12	3
67.19	0
67.26	0
67.33	0
67.4	0
67.47	0
67.54	1
67.61	0
67.68	0
67.75	0
67.82	0
67.89	0
67.96	2
68.03	2
68.1	0
68.17	0
68.24	1
68.31	1
68.38	1
68.45	1
68.52	1
68.59	3
68.66	2
68.73	1
68.8	1
68.87	3
68.94	0
69.01	0
69.08	2
69.15	1
69.22	2
69.29	1
69.36	0
69.43	2
69.5	3
69.57	0
69.64	0
69.71	4
69.78	2
69.85	2
69.92	1
69.99	1
70.06	0
70.13	2
70.2	2
70.27	3
70.34	0
70.41	1
70.48	1
70.55	1
70.62	3
70.69	0
70.76	2
70.83	2
70.9	0
70.97	0
71.04	1
71.11	3
71.18	0
71.25	0
71.32	0
71.39	1
71.46	0
71.53	2
71.6	1
71.67	0
71.74	1
71.81	0
71.88	0
71.95	3
72.02	3
72.09	1
72.16	0
72.23	1
72.3	1
72.37	2
72.44	7
72.51	253
72.58	2393
72.65	3
72.72	2
72.79	0
72.86	1
72.93	1
73	4
73.07	3
73.14	0
73.21	2
73.28	0
73.35	3
73.42	0
73.49	0
73.56	0
73.63	3
73.7	2
73.77	0
73.84	2
73.91	0
73.98	3
74.05	0
74.12	1
74.19	4
74.26	1
74.33	0
74.4	1
74.47	0
74.54	1
74.61	0
74.68	3
74.75	0
74.82	0
74.89	0
74.96	0
75.03	3
75.1	0
75.17	4
75.24	1
75.31	3
75.38	0
75.45	1
75.52	1
75.59	1
75.66	0
75.73	1
75.8	4
75.87	1
75.94	3
76.01	1
76.08	3
76.15	1
76.22	0
76.29	1
76.36	0
76.43	2
76.5	1
76.57	1
76.64	4
76.71	0
76.78	2
76.85	5
76.92	0
76.99	2
77.06	1
77.13	0
77.2	0
77.27	1
77.34	1
77.41	3
77.48	2
77.55	2
77.62	2
77.69	0
77.76	1
77.83	0
77.9	3
77.97	0
78.04	3
78.11	1
78.18	1
78.25	0
78.32	1
78.39	1
78.46	2
78.53	0
78.6	1
78.67	3
78.74	1
78.81	3
78.88	4
78.95	0
79.02	2
79.09	4
79.16	0
79.23	0
79.3	0
79.37	0
79.44	2
79.51	1
79.58	1
79.65	1
79.72	3
79.79	3
79.86	1
79.93	1
80	2
80.07	2
80.14	0
80.21	0
80.28	5
80.35	1
80.42	3
80.49	4
80.56	2
80.63	2
80.7	1
80.77	0
80.84	1
80.91	0
80.98	1
81.05	0
81.12	1
81.19	2
81.26	0
81.33	2
81.4	2
81.47	1
81.54	0
81.61	0
81.68	2
81.75	3
81.82	1
81.89	1
81.96	1
82.03	0
82.1	0
82.17	1
82.24	0
82.31	0
82.38	1
82.45	0
82.52	2
82.59	3
82.66	1
82.73	2
82.8	1
82.87	2
82.94	1
83.01	0
83.08	0
83.15	1
83.22	1
83.29	4
83.36	2
83.43	1
83.5	0
83.57	1
83.64	2
83.71	1
83.78	1
83.85	1
83.92	0
83.99	1
84.06	0
84.13	1
84.2	0
84.27	1
84.34	3
84.41	0
84.48	1
84.55	0
84.62	1
84.69	1
84.76	0
84.83	0
84.9	3
84.97	3
85.04	2
85.11	1
85.18	2
85.25	1
85.32	1
85.39	3
85.46	0
85.53	1
85.6	0
85.67	3
85.74	0
85.81	1
85.88	2
85.95	2
86.02	1
86.09	1
86.16	1
86.23	3
86.3	2
86.37	3
86.44	1
86.51	3
86.58	2
86.65	2
86.72	1
86.79	2
86.86	2
86.93	0
87	1
87.07	3
87.14	0
87.21	1
87.28	1
87.35	0
87.42	3
87.49	0
87.56	5
87.63	2
87.7	3
87.77	3
87.84	0
87.91	2
87.98	0
88.05	2
88.12	1
88.19	1
88.26	0
88.33	1
88.4	0
88.47	1
88.54	0
88.61	0
88.68	1
88.75	0
88.82	0
88.89	0
88.96	2
89.03	2
89.1	3
89.17	0
89.24	1
89.31	2
89.38	1
89.45	1
89.52	0
89.59	4
89.66	1
89.73	1
89.8	0
89.87	2
89.94	0
90.01	2
90.08	2
90.15	1
90.22	1
90.29	0
90.36	1
90.43	1
90.5	1
90.57	1
90.64	0
90.71	0
90.78	2
90.85	2
90.92	1
90.99	2
91.06	1
91.13	3
91.2	1
91.27	0
91.34	2
91.41	1
91.48	2
91.55	3
91.62	0
91.69	1
91.76	0
91.83	2
91.9	1
91.97	0
92.04	2
92.11	2
92.18	1
92.25	0
92.32	2
92.39	1
92.46	0
92.53	0
92.6	0
92.67	0
92.74	1
92.81	1
92.88	2
92.95	3
93.02	1
93.09	0
93.16	3
93.23	0
93.3	3
93.37	3
93.44	0
93.51	2
93.58	4
93.65	0
93.72	0
93.79	0
93.86	3
93.93	0
94	1
94.07	0
94.14	2
94.21	0
94.28	3
94.35	0
94.42	0
94.49	0
94.56	0
94.63	1
94.7	2
94.77	0
94.84	2
94.91	3
94.98	1
95.05	2
95.12	1
95.19	1
95.26	2
95.33	0
95.4	3
95.47	1
95.54	1
95.61	1
95.68	1
95.75	1
95.82	0
95.89	2
95.96	2
96.03	2
96.1	3
96.17	2
96.24	1
96.31	1
96.38	0
96.45	2
96.52	0
96.59	0
96.66	2
96.73	0
96.8	3
96.87	1
96.94	1
97.01	0
97.08	0
97.15	4
97.22	1
97.29	1
97.36	1
97.43	0
97.5	1
97.57	1
97.64	0
97.71	2
97.78	3
97.85	1
97.92	0
97.99	1
98.06	0
98.13	2
98.2	2
98.27	1
98.34	1
98.41	1
98.48	3
98.55	0
98.62	2
98.69	1
98.76	2
98.83	1
98.9	1
98.97	0
99.04	3
99.11	2
99.18	0
99.25	0
99.32	1
99.39	3
99.46	0
99.53	2
99.6	1
99.67	2
99.74	0
99.81	5
99.88	1
99.95	1
100	0